"","examples_condition","label_condition","rt","stimulus","response","bin4_position","trial_number","y_teaching_bin","prediction_type","ground_truth","target_category","competency_condition","bin4_example_one","bin4_example_two","other_example_one","other_example_two","trial_order","trial_index","time_elapsed","subject_id","highlights_condition","experiment_condition","age","gender","country"
"1","examples","labels",11765,"n01775062_346.JPEG","Top","up",1,4,"false_positive","wolf spider","tarantula","bin4_vs_bin0","n01774750_5241.JPEG","n01774750_5605.JPEG","n01774750_326.JPEG","n01774750_7085.JPEG",9,5,27348,"nw3tfpb8","no_highlights","bin4_vs_bin0",36,"Male","United States of America"
"2","examples","labels",7203,"n03355925_11703.JPEG","Bottom","up",2,4,"true_positive","flagpole","flagpole","bin4_vs_bin0","n03355925_25129.JPEG","n03355925_4301.JPEG","n03355925_21290.JPEG","n03355925_26775.JPEG",49,6,34553,"nw3tfpb8","no_highlights","bin4_vs_bin0",36,"Male","United States of America"
"3","examples","labels",9923,"n01622779_6015.JPEG","Bottom","up",3,4,"false_negative","great grey owl","american alligator","bin4_vs_bin0","n01698640_18055.JPEG","n01698640_23838.JPEG","n01698640_5106.JPEG","n01698640_8125.JPEG",0,7,44478,"nw3tfpb8","no_highlights","bin4_vs_bin0",36,"Male","United States of America"
"4","examples","labels",3298,"n02910353_1177.JPEG","Top","up",4,4,"true_positive","buckle","buckle","bin4_vs_bin0","n02910353_27074.JPEG","n02910353_5938.JPEG","n02910353_3569.JPEG","n02910353_7358.JPEG",44,8,47776,"nw3tfpb8","no_highlights","bin4_vs_bin0",36,"Male","United States of America"
"5","examples","labels",2200,"n02776631_24332.JPEG","Top","up",5,4,"true_positive","bakery","bakery","bin4_vs_bin0","n02776631_29494.JPEG","n02776631_78112.JPEG","n02776631_13841.JPEG","n02776631_34755.JPEG",41,9,49977,"nw3tfpb8","no_highlights","bin4_vs_bin0",36,"Male","United States of America"
"6","examples","labels",5833,"n11939491_18388.JPEG","Bottom","up",6,4,"false_positive","daisy","coral fungus","bin4_vs_bin0","n12985857_2067.JPEG","n12985857_3828.JPEG","n12985857_1224.JPEG","n12985857_1568.JPEG",66,10,55811,"nw3tfpb8","no_highlights","bin4_vs_bin0",36,"Male","United States of America"
"7","examples","labels",3094,"n01773549_1009.JPEG","Top","up",7,4,"true_positive","barn spider","barn spider","bin4_vs_bin0","n01773549_5947.JPEG","n01773549_7902.JPEG","n01773549_607.JPEG","n01773549_7321.JPEG",6,11,58906,"nw3tfpb8","no_highlights","bin4_vs_bin0",36,"Male","United States of America"
"8","examples","labels",2613,"n03775546_4552.JPEG","Bottom","up",8,4,"false_negative","mixing bowl","chocolate sauce","bin4_vs_bin0","n07836838_25811.JPEG","n07836838_29738.JPEG","n07836838_26303.JPEG","n07836838_3810.JPEG",55,12,61520,"nw3tfpb8","no_highlights","bin4_vs_bin0",36,"Male","United States of America"
"9","examples","labels",6019,"n02108000_6512.JPEG","Bottom","up",9,4,"false_positive","entlebucher","appenzeller","bin4_vs_bin0","n02107908_11026.JPEG","n02107908_11055.JPEG","n02107908_7691.JPEG","n02107908_8711.JPEG",31,13,67540,"nw3tfpb8","no_highlights","bin4_vs_bin0",36,"Male","United States of America"
"10","examples","labels",6431,"n01737021_5934.JPEG","Bottom","up",10,4,"true_positive","water snake","water snake","bin4_vs_bin0","n01737021_13330.JPEG","n01737021_17321.JPEG","n01737021_10963.JPEG","n01737021_13356.JPEG",4,14,73973,"nw3tfpb8","no_highlights","bin4_vs_bin0",36,"Male","United States of America"
"11","examples","labels",4709,"n02776631_91680.JPEG","Bottom","up",11,4,"false_negative","bakery","rifle","bin4_vs_bin0","n04090263_30265.JPEG","n04090263_4829.JPEG","n04090263_167.JPEG","n04090263_26873.JPEG",42,15,78682,"nw3tfpb8","no_highlights","bin4_vs_bin0",36,"Male","United States of America"
"12","examples","labels",2736,"n02087046_6729.JPEG","Bottom","up",12,4,"false_negative","toy terrier","chihuahua","bin4_vs_bin0","n02085620_15502.JPEG","n02085620_9971.JPEG","n02085620_10498.JPEG","n02085620_1458.JPEG",17,16,81419,"nw3tfpb8","no_highlights","bin4_vs_bin0",36,"Male","United States of America"
"13","examples","labels",2618,"n02085620_5927.JPEG","Top","up",13,4,"true_positive","chihuahua","chihuahua","bin4_vs_bin0","n02085620_3550.JPEG","n02085620_3843.JPEG","n02085620_2766.JPEG","n02085620_7315.JPEG",15,17,84039,"nw3tfpb8","no_highlights","bin4_vs_bin0",36,"Male","United States of America"
"14","examples","labels",2610,"n02088364_3191.JPEG","Top","up",14,4,"true_positive","beagle","beagle","bin4_vs_bin0","n02088364_6.JPEG","n02088364_7340.JPEG","n02088364_14051.JPEG","n02088364_14094.JPEG",19,18,86649,"nw3tfpb8","no_highlights","bin4_vs_bin0",36,"Male","United States of America"
"15","examples","labels",3230,"n07836838_3015.JPEG","Top","up",15,4,"true_positive","chocolate sauce","chocolate sauce","bin4_vs_bin0","n07836838_4747.JPEG","n07836838_689.JPEG","n07836838_3759.JPEG","n07836838_8703.JPEG",60,19,89880,"nw3tfpb8","no_highlights","bin4_vs_bin0",36,"Male","United States of America"
"16","examples","labels",6139,"n03888257_10645.JPEG","Top","down",16,4,"false_positive","parachute","barn spider","bin4_vs_bin0","n01773549_1101.JPEG","n01773549_1230.JPEG","n01773549_3090.JPEG","n01773549_9412.JPEG",7,20,96020,"nw3tfpb8","no_highlights","bin4_vs_bin0",36,"Male","United States of America"
"17","examples","labels",4369,"n02094258_5011.JPEG","Bottom","up",17,4,"false_positive","norwich terrier","samoyed","bin4_vs_bin0","n02111889_11040.JPEG","n02111889_17140.JPEG","n02111889_2732.JPEG","n02111889_3809.JPEG",33,21,100390,"nw3tfpb8","no_highlights","bin4_vs_bin0",36,"Male","United States of America"
"18","examples","labels",2207,"n11939491_55307.JPEG","Bottom","down",18,4,"true_positive","daisy","daisy","bin4_vs_bin0","n11939491_52970.JPEG","n11939491_6133.JPEG","n11939491_25081.JPEG","n11939491_47993.JPEG",64,22,102599,"nw3tfpb8","no_highlights","bin4_vs_bin0",36,"Male","United States of America"
"19","examples","labels",2421,"n03630383_9556.JPEG","Bottom","down",19,4,"false_negative","lab coat","crash helmet","bin4_vs_bin0","n03127747_1618.JPEG","n03127747_19969.JPEG","n03127747_10078.JPEG","n03127747_14164.JPEG",52,23,105020,"nw3tfpb8","no_highlights","bin4_vs_bin0",36,"Male","United States of America"
"20","examples","labels",2581,"n02094433_9397.JPEG","Bottom","down",20,4,"false_negative","yorkshire terrier","silky terrier","bin4_vs_bin0","n02097658_4517.JPEG","n02097658_947.JPEG","n02097658_1658.JPEG","n02097658_703.JPEG",26,24,107603,"nw3tfpb8","no_highlights","bin4_vs_bin0",36,"Male","United States of America"
"21","examples","labels",2562,"n02087046_5352.JPEG","Top","up",21,4,"true_positive","toy terrier","toy terrier","bin4_vs_bin0","n02087046_12885.JPEG","n02087046_6526.JPEG","n02087046_3883.JPEG","n02087046_9010.JPEG",16,25,110165,"nw3tfpb8","no_highlights","bin4_vs_bin0",36,"Male","United States of America"
"22","examples","labels",6976,"n02793495_2259.JPEG","Bottom","up",22,4,"false_positive","barn","flagpole","bin4_vs_bin0","n03355925_13846.JPEG","n03355925_2062.JPEG","n03355925_16418.JPEG","n03355925_33214.JPEG",50,26,117143,"nw3tfpb8","no_highlights","bin4_vs_bin0",36,"Male","United States of America"
"23","examples","labels",3269,"n01774750_3115.JPEG","Top","up",23,4,"false_positive","tarantula","wolf spider","bin4_vs_bin0","n01775062_3371.JPEG","n01775062_5393.JPEG","n01775062_4308.JPEG","n01775062_8240.JPEG",10,27,120412,"nw3tfpb8","no_highlights","bin4_vs_bin0",36,"Male","United States of America"
"24","examples","labels",1970,"n01774750_66.JPEG","Top","up",24,4,"true_positive","tarantula","tarantula","bin4_vs_bin0","n01774750_2059.JPEG","n01774750_306.JPEG","n01774750_2247.JPEG","n01774750_537.JPEG",8,28,122384,"nw3tfpb8","no_highlights","bin4_vs_bin0",36,"Male","United States of America"
"25","examples","labels",3291,"n02966687_11538.JPEG","Top","up",25,4,"false_negative","carpenter's kit","buckle","bin4_vs_bin0","n02910353_10560.JPEG","n02910353_20510.JPEG","n02910353_12765.JPEG","n02910353_12909.JPEG",46,29,125675,"nw3tfpb8","no_highlights","bin4_vs_bin0",36,"Male","United States of America"
"26","examples","labels",4188,"n02749479_3938.JPEG","Bottom","down",26,4,"false_negative","assault rifle","syringe","bin4_vs_bin0","n04376876_11958.JPEG","n04376876_7055.JPEG","n04376876_12585.JPEG","n04376876_3322.JPEG",40,30,129865,"nw3tfpb8","no_highlights","bin4_vs_bin0",36,"Male","United States of America"
"27","examples","labels",6093,"n02123045_10294.JPEG","Top","down",27,4,"false_positive","tabby","lynx","bin4_vs_bin0","n02127052_13004.JPEG","n02127052_5318.JPEG","n02127052_12209.JPEG","n02127052_5365.JPEG",35,31,135959,"nw3tfpb8","no_highlights","bin4_vs_bin0",36,"Male","United States of America"
"28","examples","labels",2639,"n02708093_6723.JPEG","Bottom","down",28,4,"false_negative","analog clock","wall clock","bin4_vs_bin0","n04548280_5235.JPEG","n04548280_9136.JPEG","n04548280_4285.JPEG","n04548280_954.JPEG",39,32,138600,"nw3tfpb8","no_highlights","bin4_vs_bin0",36,"Male","United States of America"
"29","examples","labels",1692,"n03690938_1590.JPEG","Bottom","down",29,4,"true_positive","lotion","lotion","bin4_vs_bin0","n03690938_308.JPEG","n03690938_5613.JPEG","n03690938_11023.JPEG","n03690938_6442.JPEG",54,33,140292,"nw3tfpb8","no_highlights","bin4_vs_bin0",36,"Male","United States of America"
"30","examples","labels",16233,"n01698640_1544.JPEG","Top","up",30,4,"false_negative","american alligator","cliff","bin4_vs_bin0","n09246464_10281.JPEG","n09246464_85325.JPEG","n09246464_14057.JPEG","n09246464_43233.JPEG",2,34,156526,"nw3tfpb8","no_highlights","bin4_vs_bin0",36,"Male","United States of America"
"31","examples","labels",1849,"n02094258_1318.JPEG","Top","up",31,4,"false_positive","norwich terrier","australian terrier","bin4_vs_bin0","n02096294_2519.JPEG","n02096294_6003.JPEG","n02096294_1315.JPEG","n02096294_5463.JPEG",27,35,158377,"nw3tfpb8","no_highlights","bin4_vs_bin0",36,"Male","United States of America"
"32","examples","labels",3334,"n01629819_11036.JPEG","Top","down",32,4,"true_positive","european fire salamander","european fire salamander","bin4_vs_bin0","n01629819_11847.JPEG","n01629819_15089.JPEG","n01629819_15314.JPEG","n01629819_2223.JPEG",1,36,161711,"nw3tfpb8","no_highlights","bin4_vs_bin0",36,"Male","United States of America"
"33","examples","labels",2331,"n02910353_14448.JPEG","Top","up",33,4,"false_positive","buckle","lens cap","bin4_vs_bin0","n03657121_24981.JPEG","n03657121_5931.JPEG","n03657121_12512.JPEG","n03657121_7761.JPEG",53,37,164044,"nw3tfpb8","no_highlights","bin4_vs_bin0",36,"Male","United States of America"
"34","examples","labels",4067,"n02841315_22883.JPEG","Bottom","down",34,4,"false_positive","binoculars","sunscreen","bin4_vs_bin0","n04357314_11238.JPEG","n04357314_15646.JPEG","n04357314_15268.JPEG","n04357314_3673.JPEG",58,38,168111,"nw3tfpb8","no_highlights","bin4_vs_bin0",36,"Male","United States of America"
"35","examples","labels",4771,"n02841315_9856.JPEG","Top","up",35,4,"true_positive","binoculars","binoculars","bin4_vs_bin0","n02841315_1166.JPEG","n02841315_6727.JPEG","n02841315_12588.JPEG","n02841315_16773.JPEG",43,39,172883,"nw3tfpb8","no_highlights","bin4_vs_bin0",36,"Male","United States of America"
"36","examples","labels",2659,"n02106550_12409.JPEG","Top","down",36,4,"false_positive","rottweiler","black-and-tan coonhound","bin4_vs_bin0","n02089078_11010.JPEG","n02089078_3869.JPEG","n02089078_3134.JPEG","n02089078_9564.JPEG",21,40,175543,"nw3tfpb8","no_highlights","bin4_vs_bin0",36,"Male","United States of America"
"37","examples","labels",2473,"n01728572_3606.JPEG","Bottom","up",37,4,"false_positive","thunder snake","water snake","bin4_vs_bin0","n01737021_14581.JPEG","n01737021_9875.JPEG","n01737021_18157.JPEG","n01737021_7455.JPEG",5,41,178018,"nw3tfpb8","no_highlights","bin4_vs_bin0",36,"Male","United States of America"
"38","examples","labels",2984,"n02100583_641.JPEG","Bottom","down",38,4,"true_positive","vizsla","vizsla","bin4_vs_bin0","n02100583_12267.JPEG","n02100583_24836.JPEG","n02100583_18233.JPEG","n02100583_2500.JPEG",28,42,181003,"nw3tfpb8","no_highlights","bin4_vs_bin0",36,"Male","United States of America"
"39","examples","labels",2655,"n02127052_15937.JPEG","Bottom","up",39,4,"true_positive","lynx","lynx","bin4_vs_bin0","n02127052_6930.JPEG","n02127052_7837.JPEG","n02127052_12209.JPEG","n02127052_5365.JPEG",34,43,183659,"nw3tfpb8","no_highlights","bin4_vs_bin0",36,"Male","United States of America"
"40","examples","labels",3395,"n04081281_63657.JPEG","Bottom","down",40,4,"false_negative","restaurant","vizsla","bin4_vs_bin0","n02100583_1215.JPEG","n02100583_5039.JPEG","n02100583_21102.JPEG","n02100583_27099.JPEG",56,44,187055,"nw3tfpb8","no_highlights","bin4_vs_bin0",36,"Male","United States of America"
"41","examples","labels",3041,"n02089867_1292.JPEG","Bottom","up",41,4,"false_negative","walker hound","beagle","bin4_vs_bin0","n02088364_15436.JPEG","n02088364_4874.JPEG","n02088364_12440.JPEG","n02088364_3466.JPEG",22,45,190097,"nw3tfpb8","no_highlights","bin4_vs_bin0",36,"Male","United States of America"
"42","examples","labels",6876,"n02708093_2037.JPEG","Top","up",42,4,"true_positive","analog clock","analog clock","bin4_vs_bin0","n02708093_1727.JPEG","n02708093_7076.JPEG","n02708093_2469.JPEG","n02708093_2499.JPEG",38,46,196974,"nw3tfpb8","no_highlights","bin4_vs_bin0",36,"Male","United States of America"
"43","examples","labels",3865,"n03355925_20526.JPEG","Bottom","down",43,4,"false_negative","flagpole","syringe","bin4_vs_bin0","n04376876_12070.JPEG","n04376876_5039.JPEG","n04376876_10801.JPEG","n04376876_17008.JPEG",51,47,200840,"nw3tfpb8","no_highlights","bin4_vs_bin0",36,"Male","United States of America"
"44","examples","labels",1905,"n01843065_1594.JPEG","Bottom","down",44,4,"false_negative","jacamar","bee eater","bin4_vs_bin0","n01828970_29781.JPEG","n01828970_5523.JPEG","n01828970_2859.JPEG","n01828970_480.JPEG",12,48,202746,"nw3tfpb8","no_highlights","bin4_vs_bin0",36,"Male","United States of America"
"45","examples","labels",1984,"n02089078_10242.JPEG","Bottom","down",45,4,"false_positive","black-and-tan coonhound","rottweiler","bin4_vs_bin0","n02106550_11490.JPEG","n02106550_7453.JPEG","n02106550_2886.JPEG","n02106550_423.JPEG",30,49,204732,"nw3tfpb8","no_highlights","bin4_vs_bin0",36,"Male","United States of America"
"46","examples","labels",4447,"n09246464_20477.JPEG","Top","down",46,4,"true_positive","cliff","cliff","bin4_vs_bin0","n09246464_42064.JPEG","n09246464_48782.JPEG","n09246464_16558.JPEG","n09246464_20389.JPEG",62,50,209179,"nw3tfpb8","no_highlights","bin4_vs_bin0",36,"Male","United States of America"
"47","examples","labels",3117,"n07613480_20992.JPEG","Top","down",47,4,"true_positive","trifle","trifle","bin4_vs_bin0","n07613480_1476.JPEG","n07613480_16696.JPEG","n07613480_24663.JPEG","n07613480_44499.JPEG",59,51,212298,"nw3tfpb8","no_highlights","bin4_vs_bin0",36,"Male","United States of America"
"48","examples","labels",4089,"n02966687_13138.JPEG","Top","up",48,4,"true_positive","carpenter's kit","carpenter's kit","bin4_vs_bin0","n02966687_16028.JPEG","n02966687_8155.JPEG","n02966687_11538.JPEG","n02966687_5754.JPEG",45,52,216388,"nw3tfpb8","no_highlights","bin4_vs_bin0",36,"Male","United States of America"
"49","examples","labels",2944,"n02093754_1207.JPEG","Top","up",49,4,"true_positive","border terrier","border terrier","bin4_vs_bin0","n02093754_3009.JPEG","n02093754_4354.JPEG","n02093754_2656.JPEG","n02093754_6122.JPEG",23,53,219333,"nw3tfpb8","no_highlights","bin4_vs_bin0",36,"Male","United States of America"
"50","examples","labels",2988,"n02093754_2510.JPEG","Top","up",50,4,"false_negative","border terrier","irish terrier","bin4_vs_bin0","n02093991_1026.JPEG","n02093991_233.JPEG","n02093991_1193.JPEG","n02093991_8867.JPEG",24,54,222322,"nw3tfpb8","no_highlights","bin4_vs_bin0",36,"Male","United States of America"
"51","examples","labels",2958,"n02127052_4830.JPEG","Top","up",51,4,"false_positive","lynx","tiger","bin4_vs_bin0","n02129604_2760.JPEG","n02129604_37.JPEG","n02129604_23238.JPEG","n02129604_8342.JPEG",36,55,225281,"nw3tfpb8","no_highlights","bin4_vs_bin0",36,"Male","United States of America"
"52","examples","labels",3995,"n09246464_44118.JPEG","Bottom","up",52,4,"false_negative","cliff","water snake","bin4_vs_bin0","n01737021_10059.JPEG","n01737021_4842.JPEG","n01737021_13110.JPEG","n01737021_16309.JPEG",63,56,229277,"nw3tfpb8","no_highlights","bin4_vs_bin0",36,"Male","United States of America"
"53","examples","labels",1983,"n02749479_4947.JPEG","Top","down",53,4,"false_positive","assault rifle","rifle","bin4_vs_bin0","n04090263_6522.JPEG","n04090263_8691.JPEG","n04090263_13032.JPEG","n04090263_829.JPEG",57,57,231260,"nw3tfpb8","no_highlights","bin4_vs_bin0",36,"Male","United States of America"
"54","examples","labels",2246,"n02100583_16828.JPEG","Top","down",54,4,"false_negative","vizsla","irish terrier","bin4_vs_bin0","n02093991_3322.JPEG","n02093991_7812.JPEG","n02093991_2202.JPEG","n02093991_8208.JPEG",29,58,233508,"nw3tfpb8","no_highlights","bin4_vs_bin0",36,"Male","United States of America"
"55","examples","labels",2602,"n02111889_8845.JPEG","Bottom","up",55,4,"false_positive","samoyed","norwich terrier","bin4_vs_bin0","n02094258_1594.JPEG","n02094258_3809.JPEG","n02094258_2513.JPEG","n02094258_778.JPEG",25,59,236111,"nw3tfpb8","no_highlights","bin4_vs_bin0",36,"Male","United States of America"
"56","examples","labels",3921,"n03180011_7471.JPEG","Bottom","down",56,4,"false_negative","desktop computer","restaurant","bin4_vs_bin0","n04081281_24883.JPEG","n04081281_63796.JPEG","n04081281_71573.JPEG","n04081281_73452.JPEG",48,60,240033,"nw3tfpb8","no_highlights","bin4_vs_bin0",36,"Male","United States of America"
"57","examples","labels",3001,"n03124170_1827.JPEG","Bottom","down",57,4,"true_positive","cowboy hat","cowboy hat","bin4_vs_bin0","n03124170_5589.JPEG","n03124170_747.JPEG","n03124170_18272.JPEG","n03124170_9703.JPEG",47,61,243036,"nw3tfpb8","no_highlights","bin4_vs_bin0",36,"Male","United States of America"
"58","examples","labels",2902,"n01798484_3991.JPEG","Bottom","down",58,4,"true_positive","prairie chicken","prairie chicken","bin4_vs_bin0","n01798484_11834.JPEG","n01798484_12617.JPEG","n01798484_14019.JPEG","n01798484_864.JPEG",11,62,245939,"nw3tfpb8","no_highlights","bin4_vs_bin0",36,"Male","United States of America"
"59","examples","labels",2146,"n02088364_546.JPEG","Top","down",59,4,"false_positive","beagle","rhodesian ridgeback","bin4_vs_bin0","n02087394_1136.JPEG","n02087394_6197.JPEG","n02087394_2747.JPEG","n02087394_9206.JPEG",18,63,248086,"nw3tfpb8","no_highlights","bin4_vs_bin0",36,"Male","United States of America"
"60","examples","labels",2193,"n02111889_8306.JPEG","Bottom","down",60,4,"false_positive","samoyed","hippopotamus","bin4_vs_bin0","n02398521_12142.JPEG","n02398521_22710.JPEG","n02398521_11047.JPEG","n02398521_28136.JPEG",37,64,250280,"nw3tfpb8","no_highlights","bin4_vs_bin0",36,"Male","United States of America"
"61","examples","labels",4068,"n01737021_11237.JPEG","Top","down",61,4,"false_positive","water snake","thunder snake","bin4_vs_bin0","n01728572_24347.JPEG","n01728572_6211.JPEG","n01728572_23564.JPEG","n01728572_3226.JPEG",3,65,254349,"nw3tfpb8","no_highlights","bin4_vs_bin0",36,"Male","United States of America"
"62","examples","labels",2812,"n02089867_1009.JPEG","Bottom","down",62,4,"false_positive","walker hound","beagle","bin4_vs_bin0","n02088364_10216.JPEG","n02088364_9768.JPEG","n02088364_1243.JPEG","n02088364_17243.JPEG",20,66,257162,"nw3tfpb8","no_highlights","bin4_vs_bin0",36,"Male","United States of America"
"63","examples","labels",4973,"n01737021_5123.JPEG","Bottom","down",63,4,"false_positive","water snake","jellyfish","bin4_vs_bin0","n01910747_389.JPEG","n01910747_80.JPEG","n01910747_17115.JPEG","n01910747_2059.JPEG",13,67,262137,"nw3tfpb8","no_highlights","bin4_vs_bin0",36,"Male","United States of America"
"64","examples","labels",3220,"n02107908_7700.JPEG","Top","down",64,4,"false_negative","appenzeller","beagle","bin4_vs_bin0","n02088364_14069.JPEG","n02088364_7913.JPEG","n02088364_13361.JPEG","n02088364_15516.JPEG",32,68,265357,"nw3tfpb8","no_highlights","bin4_vs_bin0",36,"Male","United States of America"
"65","examples","labels",7001,"n07836838_12552.JPEG","Top","down",65,4,"false_negative","chocolate sauce","plate","bin4_vs_bin0","n07579787_14908.JPEG","n07579787_9332.JPEG","n07579787_7772.JPEG","n07579787_8617.JPEG",61,69,272359,"nw3tfpb8","no_highlights","bin4_vs_bin0",36,"Male","United States of America"
"66","examples","labels",3214,"n01910747_1373.JPEG","Bottom","up",66,4,"false_negative","jellyfish","syringe","bin4_vs_bin0","n04376876_12448.JPEG","n04376876_14846.JPEG","n04376876_11416.JPEG","n04376876_16406.JPEG",14,70,275575,"nw3tfpb8","no_highlights","bin4_vs_bin0",36,"Male","United States of America"
"67","examples","labels",1689,"n12985857_11341.JPEG","Bottom","down",67,4,"true_positive","coral fungus","coral fungus","bin4_vs_bin0","n12985857_4636.JPEG","n12985857_4686.JPEG","n12985857_3606.JPEG","n12985857_4228.JPEG",65,71,277264,"nw3tfpb8","no_highlights","bin4_vs_bin0",36,"Male","United States of America"
"68","examples","labels",15201,"n09246464_20477.JPEG","Top","down",1,4,"true_positive","cliff","cliff","bin4_vs_bin0","n09246464_42064.JPEG","n09246464_48782.JPEG","n09246464_16558.JPEG","n09246464_20389.JPEG",62,5,69546,"dwmztxe4","no_highlights","bin4_vs_bin0",30,"Female","United States of America"
"69","examples","labels",7554,"n02749479_4947.JPEG","Top","down",2,4,"false_positive","assault rifle","rifle","bin4_vs_bin0","n04090263_6522.JPEG","n04090263_8691.JPEG","n04090263_13032.JPEG","n04090263_829.JPEG",57,6,77102,"dwmztxe4","no_highlights","bin4_vs_bin0",30,"Female","United States of America"
"70","examples","labels",3622,"n02089078_10242.JPEG","Bottom","down",3,4,"false_positive","black-and-tan coonhound","rottweiler","bin4_vs_bin0","n02106550_11490.JPEG","n02106550_7453.JPEG","n02106550_2886.JPEG","n02106550_423.JPEG",30,7,80726,"dwmztxe4","no_highlights","bin4_vs_bin0",30,"Female","United States of America"
"71","examples","labels",3516,"n03180011_7471.JPEG","Top","down",4,4,"false_negative","desktop computer","restaurant","bin4_vs_bin0","n04081281_24883.JPEG","n04081281_63796.JPEG","n04081281_71573.JPEG","n04081281_73452.JPEG",48,8,84244,"dwmztxe4","no_highlights","bin4_vs_bin0",30,"Female","United States of America"
"72","examples","labels",3757,"n02123045_10294.JPEG","Bottom","down",5,4,"false_positive","tabby","lynx","bin4_vs_bin0","n02127052_13004.JPEG","n02127052_5318.JPEG","n02127052_12209.JPEG","n02127052_5365.JPEG",35,9,88002,"dwmztxe4","no_highlights","bin4_vs_bin0",30,"Female","United States of America"
"73","examples","labels",2719,"n11939491_18388.JPEG","Bottom","up",6,4,"false_positive","daisy","coral fungus","bin4_vs_bin0","n12985857_2067.JPEG","n12985857_3828.JPEG","n12985857_1224.JPEG","n12985857_1568.JPEG",66,10,90722,"dwmztxe4","no_highlights","bin4_vs_bin0",30,"Female","United States of America"
"74","examples","labels",3248,"n02089867_1292.JPEG","Bottom","up",7,4,"false_negative","walker hound","beagle","bin4_vs_bin0","n02088364_15436.JPEG","n02088364_4874.JPEG","n02088364_12440.JPEG","n02088364_3466.JPEG",22,11,93972,"dwmztxe4","no_highlights","bin4_vs_bin0",30,"Female","United States of America"
"75","examples","labels",5309,"n02106550_12409.JPEG","Bottom","down",8,4,"false_positive","rottweiler","black-and-tan coonhound","bin4_vs_bin0","n02089078_11010.JPEG","n02089078_3869.JPEG","n02089078_3134.JPEG","n02089078_9564.JPEG",21,12,99282,"dwmztxe4","no_highlights","bin4_vs_bin0",30,"Female","United States of America"
"76","examples","labels",3554,"n03355925_20526.JPEG","Bottom","down",9,4,"false_negative","flagpole","syringe","bin4_vs_bin0","n04376876_12070.JPEG","n04376876_5039.JPEG","n04376876_10801.JPEG","n04376876_17008.JPEG",51,13,102837,"dwmztxe4","no_highlights","bin4_vs_bin0",30,"Female","United States of America"
"77","examples","labels",2127,"n02088364_546.JPEG","Top","down",10,4,"false_positive","beagle","rhodesian ridgeback","bin4_vs_bin0","n02087394_1136.JPEG","n02087394_6197.JPEG","n02087394_2747.JPEG","n02087394_9206.JPEG",18,14,104965,"dwmztxe4","no_highlights","bin4_vs_bin0",30,"Female","United States of America"
"78","examples","labels",23635,"n07836838_12552.JPEG","Bottom","down",11,4,"false_negative","chocolate sauce","plate","bin4_vs_bin0","n07579787_14908.JPEG","n07579787_9332.JPEG","n07579787_7772.JPEG","n07579787_8617.JPEG",61,15,128601,"dwmztxe4","no_highlights","bin4_vs_bin0",30,"Female","United States of America"
"79","examples","labels",2377,"n01737021_5934.JPEG","Bottom","up",12,4,"true_positive","water snake","water snake","bin4_vs_bin0","n01737021_13330.JPEG","n01737021_17321.JPEG","n01737021_10963.JPEG","n01737021_13356.JPEG",4,16,130980,"dwmztxe4","no_highlights","bin4_vs_bin0",30,"Female","United States of America"
"80","examples","labels",5550,"n03888257_10645.JPEG","Bottom","down",13,4,"false_positive","parachute","barn spider","bin4_vs_bin0","n01773549_1101.JPEG","n01773549_1230.JPEG","n01773549_3090.JPEG","n01773549_9412.JPEG",7,17,136531,"dwmztxe4","no_highlights","bin4_vs_bin0",30,"Female","United States of America"
"81","examples","labels",2571,"n02127052_4830.JPEG","Top","up",14,4,"false_positive","lynx","tiger","bin4_vs_bin0","n02129604_2760.JPEG","n02129604_37.JPEG","n02129604_23238.JPEG","n02129604_8342.JPEG",36,18,139103,"dwmztxe4","no_highlights","bin4_vs_bin0",30,"Female","United States of America"
"82","examples","labels",3679,"n02910353_14448.JPEG","Top","up",15,4,"false_positive","buckle","lens cap","bin4_vs_bin0","n03657121_24981.JPEG","n03657121_5931.JPEG","n03657121_12512.JPEG","n03657121_7761.JPEG",53,19,142784,"dwmztxe4","no_highlights","bin4_vs_bin0",30,"Female","United States of America"
"83","examples","labels",3467,"n02749479_3938.JPEG","Top","down",16,4,"false_negative","assault rifle","syringe","bin4_vs_bin0","n04376876_11958.JPEG","n04376876_7055.JPEG","n04376876_12585.JPEG","n04376876_3322.JPEG",40,20,146253,"dwmztxe4","no_highlights","bin4_vs_bin0",30,"Female","United States of America"
"84","examples","labels",3453,"n02089867_1009.JPEG","Top","down",17,4,"false_positive","walker hound","beagle","bin4_vs_bin0","n02088364_10216.JPEG","n02088364_9768.JPEG","n02088364_1243.JPEG","n02088364_17243.JPEG",20,21,149707,"dwmztxe4","no_highlights","bin4_vs_bin0",30,"Female","United States of America"
"85","examples","labels",4295,"n02708093_2037.JPEG","Top","up",18,4,"true_positive","analog clock","analog clock","bin4_vs_bin0","n02708093_1727.JPEG","n02708093_7076.JPEG","n02708093_2469.JPEG","n02708093_2499.JPEG",38,22,154003,"dwmztxe4","no_highlights","bin4_vs_bin0",30,"Female","United States of America"
"86","examples","labels",3265,"n01698640_1544.JPEG","Top","up",19,4,"false_negative","american alligator","cliff","bin4_vs_bin0","n09246464_10281.JPEG","n09246464_85325.JPEG","n09246464_14057.JPEG","n09246464_43233.JPEG",2,23,157269,"dwmztxe4","no_highlights","bin4_vs_bin0",30,"Female","United States of America"
"87","examples","labels",4512,"n02111889_8306.JPEG","Top","down",20,4,"false_positive","samoyed","hippopotamus","bin4_vs_bin0","n02398521_12142.JPEG","n02398521_22710.JPEG","n02398521_11047.JPEG","n02398521_28136.JPEG",37,24,161783,"dwmztxe4","no_highlights","bin4_vs_bin0",30,"Female","United States of America"
"88","examples","labels",3477,"n02087046_5352.JPEG","Top","up",21,4,"true_positive","toy terrier","toy terrier","bin4_vs_bin0","n02087046_12885.JPEG","n02087046_6526.JPEG","n02087046_3883.JPEG","n02087046_9010.JPEG",16,25,165262,"dwmztxe4","no_highlights","bin4_vs_bin0",30,"Female","United States of America"
"89","examples","labels",5837,"n01728572_3606.JPEG","Bottom","up",22,4,"false_positive","thunder snake","water snake","bin4_vs_bin0","n01737021_14581.JPEG","n01737021_9875.JPEG","n01737021_18157.JPEG","n01737021_7455.JPEG",5,26,171101,"dwmztxe4","no_highlights","bin4_vs_bin0",30,"Female","United States of America"
"90","examples","labels",1930,"n02107908_7700.JPEG","Bottom","down",23,4,"false_negative","appenzeller","beagle","bin4_vs_bin0","n02088364_14069.JPEG","n02088364_7913.JPEG","n02088364_13361.JPEG","n02088364_15516.JPEG",32,27,173034,"dwmztxe4","no_highlights","bin4_vs_bin0",30,"Female","United States of America"
"91","examples","labels",2673,"n02966687_13138.JPEG","Top","up",24,4,"true_positive","carpenter's kit","carpenter's kit","bin4_vs_bin0","n02966687_16028.JPEG","n02966687_8155.JPEG","n02966687_11538.JPEG","n02966687_5754.JPEG",45,28,175709,"dwmztxe4","no_highlights","bin4_vs_bin0",30,"Female","United States of America"
"92","examples","labels",3912,"n07613480_20992.JPEG","Bottom","down",25,4,"true_positive","trifle","trifle","bin4_vs_bin0","n07613480_1476.JPEG","n07613480_16696.JPEG","n07613480_24663.JPEG","n07613480_44499.JPEG",59,29,179623,"dwmztxe4","no_highlights","bin4_vs_bin0",30,"Female","United States of America"
"93","examples","labels",2243,"n03690938_1590.JPEG","Bottom","down",26,4,"true_positive","lotion","lotion","bin4_vs_bin0","n03690938_308.JPEG","n03690938_5613.JPEG","n03690938_11023.JPEG","n03690938_6442.JPEG",54,30,181867,"dwmztxe4","no_highlights","bin4_vs_bin0",30,"Female","United States of America"
"94","examples","labels",2425,"n02708093_6723.JPEG","Bottom","down",27,4,"false_negative","analog clock","wall clock","bin4_vs_bin0","n04548280_5235.JPEG","n04548280_9136.JPEG","n04548280_4285.JPEG","n04548280_954.JPEG",39,31,184293,"dwmztxe4","no_highlights","bin4_vs_bin0",30,"Female","United States of America"
"95","examples","labels",3709,"n02093754_1207.JPEG","Top","up",28,4,"true_positive","border terrier","border terrier","bin4_vs_bin0","n02093754_3009.JPEG","n02093754_4354.JPEG","n02093754_2656.JPEG","n02093754_6122.JPEG",23,32,188003,"dwmztxe4","no_highlights","bin4_vs_bin0",30,"Female","United States of America"
"96","examples","labels",3991,"n02085620_5927.JPEG","Top","up",29,4,"true_positive","chihuahua","chihuahua","bin4_vs_bin0","n02085620_3550.JPEG","n02085620_3843.JPEG","n02085620_2766.JPEG","n02085620_7315.JPEG",15,33,191995,"dwmztxe4","no_highlights","bin4_vs_bin0",30,"Female","United States of America"
"97","examples","labels",13749,"n01910747_1373.JPEG","Bottom","up",30,4,"false_negative","jellyfish","syringe","bin4_vs_bin0","n04376876_12448.JPEG","n04376876_14846.JPEG","n04376876_11416.JPEG","n04376876_16406.JPEG",14,34,205745,"dwmztxe4","no_highlights","bin4_vs_bin0",30,"Female","United States of America"
"98","examples","labels",5854,"n01773549_1009.JPEG","Top","up",31,4,"true_positive","barn spider","barn spider","bin4_vs_bin0","n01773549_5947.JPEG","n01773549_7902.JPEG","n01773549_607.JPEG","n01773549_7321.JPEG",6,35,211602,"dwmztxe4","no_highlights","bin4_vs_bin0",30,"Female","United States of America"
"99","examples","labels",3311,"n02108000_6512.JPEG","Bottom","up",32,4,"false_positive","entlebucher","appenzeller","bin4_vs_bin0","n02107908_11026.JPEG","n02107908_11055.JPEG","n02107908_7691.JPEG","n02107908_8711.JPEG",31,36,214915,"dwmztxe4","no_highlights","bin4_vs_bin0",30,"Female","United States of America"
"100","examples","labels",3195,"n02776631_91680.JPEG","Bottom","up",33,4,"false_negative","bakery","rifle","bin4_vs_bin0","n04090263_30265.JPEG","n04090263_4829.JPEG","n04090263_167.JPEG","n04090263_26873.JPEG",42,37,218111,"dwmztxe4","no_highlights","bin4_vs_bin0",30,"Female","United States of America"
"101","examples","labels",1954,"n11939491_55307.JPEG","Bottom","down",34,4,"true_positive","daisy","daisy","bin4_vs_bin0","n11939491_52970.JPEG","n11939491_6133.JPEG","n11939491_25081.JPEG","n11939491_47993.JPEG",64,38,220067,"dwmztxe4","no_highlights","bin4_vs_bin0",30,"Female","United States of America"
"102","examples","labels",2134,"n01737021_11237.JPEG","Bottom","down",35,4,"false_positive","water snake","thunder snake","bin4_vs_bin0","n01728572_24347.JPEG","n01728572_6211.JPEG","n01728572_23564.JPEG","n01728572_3226.JPEG",3,39,222203,"dwmztxe4","no_highlights","bin4_vs_bin0",30,"Female","United States of America"
"103","examples","labels",4964,"n02966687_11538.JPEG","Bottom","up",36,4,"false_negative","carpenter's kit","buckle","bin4_vs_bin0","n02910353_10560.JPEG","n02910353_20510.JPEG","n02910353_12765.JPEG","n02910353_12909.JPEG",46,40,227169,"dwmztxe4","no_highlights","bin4_vs_bin0",30,"Female","United States of America"
"104","examples","labels",3218,"n02111889_8845.JPEG","Bottom","up",37,4,"false_positive","samoyed","norwich terrier","bin4_vs_bin0","n02094258_1594.JPEG","n02094258_3809.JPEG","n02094258_2513.JPEG","n02094258_778.JPEG",25,41,230389,"dwmztxe4","no_highlights","bin4_vs_bin0",30,"Female","United States of America"
"105","examples","labels",3498,"n03775546_4552.JPEG","Top","up",38,4,"false_negative","mixing bowl","chocolate sauce","bin4_vs_bin0","n07836838_25811.JPEG","n07836838_29738.JPEG","n07836838_26303.JPEG","n07836838_3810.JPEG",55,42,233889,"dwmztxe4","no_highlights","bin4_vs_bin0",30,"Female","United States of America"
"106","examples","labels",2845,"n01843065_1594.JPEG","Bottom","down",39,4,"false_negative","jacamar","bee eater","bin4_vs_bin0","n01828970_29781.JPEG","n01828970_5523.JPEG","n01828970_2859.JPEG","n01828970_480.JPEG",12,43,236735,"dwmztxe4","no_highlights","bin4_vs_bin0",30,"Female","United States of America"
"107","examples","labels",8644,"n03630383_9556.JPEG","Bottom","down",40,4,"false_negative","lab coat","crash helmet","bin4_vs_bin0","n03127747_1618.JPEG","n03127747_19969.JPEG","n03127747_10078.JPEG","n03127747_14164.JPEG",52,44,245381,"dwmztxe4","no_highlights","bin4_vs_bin0",30,"Female","United States of America"
"108","examples","labels",2734,"n01629819_11036.JPEG","Top","down",41,4,"true_positive","european fire salamander","european fire salamander","bin4_vs_bin0","n01629819_11847.JPEG","n01629819_15089.JPEG","n01629819_15314.JPEG","n01629819_2223.JPEG",1,45,248117,"dwmztxe4","no_highlights","bin4_vs_bin0",30,"Female","United States of America"
"109","examples","labels",4068,"n01737021_5123.JPEG","Bottom","down",42,4,"false_positive","water snake","jellyfish","bin4_vs_bin0","n01910747_389.JPEG","n01910747_80.JPEG","n01910747_17115.JPEG","n01910747_2059.JPEG",13,46,252187,"dwmztxe4","no_highlights","bin4_vs_bin0",30,"Female","United States of America"
"110","examples","labels",2282,"n03124170_1827.JPEG","Bottom","down",43,4,"true_positive","cowboy hat","cowboy hat","bin4_vs_bin0","n03124170_5589.JPEG","n03124170_747.JPEG","n03124170_18272.JPEG","n03124170_9703.JPEG",47,47,254471,"dwmztxe4","no_highlights","bin4_vs_bin0",30,"Female","United States of America"
"111","examples","labels",2242,"n02088364_3191.JPEG","Top","up",44,4,"true_positive","beagle","beagle","bin4_vs_bin0","n02088364_6.JPEG","n02088364_7340.JPEG","n02088364_14051.JPEG","n02088364_14094.JPEG",19,48,256715,"dwmztxe4","no_highlights","bin4_vs_bin0",30,"Female","United States of America"
"112","examples","labels",3374,"n01622779_6015.JPEG","Bottom","up",45,4,"false_negative","great grey owl","american alligator","bin4_vs_bin0","n01698640_18055.JPEG","n01698640_23838.JPEG","n01698640_5106.JPEG","n01698640_8125.JPEG",0,49,260091,"dwmztxe4","no_highlights","bin4_vs_bin0",30,"Female","United States of America"
"113","examples","labels",3179,"n02100583_16828.JPEG","Bottom","down",46,4,"false_negative","vizsla","irish terrier","bin4_vs_bin0","n02093991_3322.JPEG","n02093991_7812.JPEG","n02093991_2202.JPEG","n02093991_8208.JPEG",29,50,263273,"dwmztxe4","no_highlights","bin4_vs_bin0",30,"Female","United States of America"
"114","examples","labels",3256,"n02094433_9397.JPEG","Bottom","down",47,4,"false_negative","yorkshire terrier","silky terrier","bin4_vs_bin0","n02097658_4517.JPEG","n02097658_947.JPEG","n02097658_1658.JPEG","n02097658_703.JPEG",26,51,266531,"dwmztxe4","no_highlights","bin4_vs_bin0",30,"Female","United States of America"
"115","examples","labels",4754,"n01774750_3115.JPEG","Top","up",48,4,"false_positive","tarantula","wolf spider","bin4_vs_bin0","n01775062_3371.JPEG","n01775062_5393.JPEG","n01775062_4308.JPEG","n01775062_8240.JPEG",10,52,271287,"dwmztxe4","no_highlights","bin4_vs_bin0",30,"Female","United States of America"
"116","examples","labels",3476,"n01774750_66.JPEG","Bottom","up",49,4,"true_positive","tarantula","tarantula","bin4_vs_bin0","n01774750_2059.JPEG","n01774750_306.JPEG","n01774750_2247.JPEG","n01774750_537.JPEG",8,53,274765,"dwmztxe4","no_highlights","bin4_vs_bin0",30,"Female","United States of America"
"117","examples","labels",3062,"n02100583_641.JPEG","Bottom","down",50,4,"true_positive","vizsla","vizsla","bin4_vs_bin0","n02100583_12267.JPEG","n02100583_24836.JPEG","n02100583_18233.JPEG","n02100583_2500.JPEG",28,54,277829,"dwmztxe4","no_highlights","bin4_vs_bin0",30,"Female","United States of America"
"118","examples","labels",3187,"n02094258_1318.JPEG","Bottom","up",51,4,"false_positive","norwich terrier","australian terrier","bin4_vs_bin0","n02096294_2519.JPEG","n02096294_6003.JPEG","n02096294_1315.JPEG","n02096294_5463.JPEG",27,55,281018,"dwmztxe4","no_highlights","bin4_vs_bin0",30,"Female","United States of America"
"119","examples","labels",6186,"n04081281_63657.JPEG","Bottom","down",52,4,"false_negative","restaurant","vizsla","bin4_vs_bin0","n02100583_1215.JPEG","n02100583_5039.JPEG","n02100583_21102.JPEG","n02100583_27099.JPEG",56,56,287205,"dwmztxe4","no_highlights","bin4_vs_bin0",30,"Female","United States of America"
"120","examples","labels",2125,"n02776631_24332.JPEG","Top","up",53,4,"true_positive","bakery","bakery","bin4_vs_bin0","n02776631_29494.JPEG","n02776631_78112.JPEG","n02776631_13841.JPEG","n02776631_34755.JPEG",41,57,289333,"dwmztxe4","no_highlights","bin4_vs_bin0",30,"Female","United States of America"
"121","examples","labels",7810,"n02793495_2259.JPEG","Top","up",54,4,"false_positive","barn","flagpole","bin4_vs_bin0","n03355925_13846.JPEG","n03355925_2062.JPEG","n03355925_16418.JPEG","n03355925_33214.JPEG",50,58,297145,"dwmztxe4","no_highlights","bin4_vs_bin0",30,"Female","United States of America"
"122","examples","labels",2517,"n01775062_346.JPEG","Bottom","up",55,4,"false_positive","wolf spider","tarantula","bin4_vs_bin0","n01774750_5241.JPEG","n01774750_5605.JPEG","n01774750_326.JPEG","n01774750_7085.JPEG",9,59,299663,"dwmztxe4","no_highlights","bin4_vs_bin0",30,"Female","United States of America"
"123","examples","labels",12682,"n02841315_9856.JPEG","Top","up",56,4,"true_positive","binoculars","binoculars","bin4_vs_bin0","n02841315_1166.JPEG","n02841315_6727.JPEG","n02841315_12588.JPEG","n02841315_16773.JPEG",43,60,312347,"dwmztxe4","no_highlights","bin4_vs_bin0",30,"Female","United States of America"
"124","examples","labels",1455,"n12985857_11341.JPEG","Bottom","down",57,4,"true_positive","coral fungus","coral fungus","bin4_vs_bin0","n12985857_4636.JPEG","n12985857_4686.JPEG","n12985857_3606.JPEG","n12985857_4228.JPEG",65,61,313803,"dwmztxe4","no_highlights","bin4_vs_bin0",30,"Female","United States of America"
"125","examples","labels",1830,"n02127052_15937.JPEG","Top","up",58,4,"true_positive","lynx","lynx","bin4_vs_bin0","n02127052_6930.JPEG","n02127052_7837.JPEG","n02127052_12209.JPEG","n02127052_5365.JPEG",34,62,315639,"dwmztxe4","no_highlights","bin4_vs_bin0",30,"Female","United States of America"
"126","examples","labels",2486,"n02910353_1177.JPEG","Top","up",59,4,"true_positive","buckle","buckle","bin4_vs_bin0","n02910353_27074.JPEG","n02910353_5938.JPEG","n02910353_3569.JPEG","n02910353_7358.JPEG",44,63,318131,"dwmztxe4","no_highlights","bin4_vs_bin0",30,"Female","United States of America"
"127","examples","labels",2735,"n09246464_44118.JPEG","Top","up",60,4,"false_negative","cliff","water snake","bin4_vs_bin0","n01737021_10059.JPEG","n01737021_4842.JPEG","n01737021_13110.JPEG","n01737021_16309.JPEG",63,64,320867,"dwmztxe4","no_highlights","bin4_vs_bin0",30,"Female","United States of America"
"128","examples","labels",2680,"n02841315_22883.JPEG","Bottom","down",61,4,"false_positive","binoculars","sunscreen","bin4_vs_bin0","n04357314_11238.JPEG","n04357314_15646.JPEG","n04357314_15268.JPEG","n04357314_3673.JPEG",58,65,323549,"dwmztxe4","no_highlights","bin4_vs_bin0",30,"Female","United States of America"
"129","examples","labels",2664,"n07836838_3015.JPEG","Top","up",62,4,"true_positive","chocolate sauce","chocolate sauce","bin4_vs_bin0","n07836838_4747.JPEG","n07836838_689.JPEG","n07836838_3759.JPEG","n07836838_8703.JPEG",60,66,326215,"dwmztxe4","no_highlights","bin4_vs_bin0",30,"Female","United States of America"
"130","examples","labels",1438,"n02093754_2510.JPEG","Top","up",63,4,"false_negative","border terrier","irish terrier","bin4_vs_bin0","n02093991_1026.JPEG","n02093991_233.JPEG","n02093991_1193.JPEG","n02093991_8867.JPEG",24,67,327655,"dwmztxe4","no_highlights","bin4_vs_bin0",30,"Female","United States of America"
"131","examples","labels",2549,"n02094258_5011.JPEG","Top","up",64,4,"false_positive","norwich terrier","samoyed","bin4_vs_bin0","n02111889_11040.JPEG","n02111889_17140.JPEG","n02111889_2732.JPEG","n02111889_3809.JPEG",33,68,330205,"dwmztxe4","no_highlights","bin4_vs_bin0",30,"Female","United States of America"
"132","examples","labels",2872,"n01798484_3991.JPEG","Bottom","down",65,4,"true_positive","prairie chicken","prairie chicken","bin4_vs_bin0","n01798484_11834.JPEG","n01798484_12617.JPEG","n01798484_14019.JPEG","n01798484_864.JPEG",11,69,333081,"dwmztxe4","no_highlights","bin4_vs_bin0",30,"Female","United States of America"
"133","examples","labels",1822,"n03355925_11703.JPEG","Top","up",66,4,"true_positive","flagpole","flagpole","bin4_vs_bin0","n03355925_25129.JPEG","n03355925_4301.JPEG","n03355925_21290.JPEG","n03355925_26775.JPEG",49,70,334905,"dwmztxe4","no_highlights","bin4_vs_bin0",30,"Female","United States of America"
"134","examples","labels",1892,"n02087046_6729.JPEG","Top","up",67,4,"false_negative","toy terrier","chihuahua","bin4_vs_bin0","n02085620_15502.JPEG","n02085620_9971.JPEG","n02085620_10498.JPEG","n02085620_1458.JPEG",17,71,336799,"dwmztxe4","no_highlights","bin4_vs_bin0",30,"Female","United States of America"
"135","examples","labels",14459,"n02094258_5011.JPEG","Bottom","up",1,4,"false_positive","norwich terrier","samoyed","bin4_vs_bin0","n02111889_11040.JPEG","n02111889_17140.JPEG","n02111889_2732.JPEG","n02111889_3809.JPEG",33,5,38357,"ov9l17u4","no_highlights","bin4_vs_bin0",41,"Male","United States of America"
"136","examples","labels",4121,"n02749479_4947.JPEG","Top","down",2,4,"false_positive","assault rifle","rifle","bin4_vs_bin0","n04090263_6522.JPEG","n04090263_8691.JPEG","n04090263_13032.JPEG","n04090263_829.JPEG",57,6,42485,"ov9l17u4","no_highlights","bin4_vs_bin0",41,"Male","United States of America"
"137","examples","labels",3665,"n07613480_20992.JPEG","Top","down",3,4,"true_positive","trifle","trifle","bin4_vs_bin0","n07613480_1476.JPEG","n07613480_16696.JPEG","n07613480_24663.JPEG","n07613480_44499.JPEG",59,7,46161,"ov9l17u4","no_highlights","bin4_vs_bin0",41,"Male","United States of America"
"138","examples","labels",15370,"n02910353_14448.JPEG","Top","up",4,4,"false_positive","buckle","lens cap","bin4_vs_bin0","n03657121_24981.JPEG","n03657121_5931.JPEG","n03657121_12512.JPEG","n03657121_7761.JPEG",53,8,61548,"ov9l17u4","no_highlights","bin4_vs_bin0",41,"Male","United States of America"
"139","examples","labels",5267,"n02776631_91680.JPEG","Bottom","up",5,4,"false_negative","bakery","rifle","bin4_vs_bin0","n04090263_30265.JPEG","n04090263_4829.JPEG","n04090263_167.JPEG","n04090263_26873.JPEG",42,9,66834,"ov9l17u4","no_highlights","bin4_vs_bin0",41,"Male","United States of America"
"140","examples","labels",4526,"n03355925_11703.JPEG","Top","up",6,4,"true_positive","flagpole","flagpole","bin4_vs_bin0","n03355925_25129.JPEG","n03355925_4301.JPEG","n03355925_21290.JPEG","n03355925_26775.JPEG",49,10,71375,"ov9l17u4","no_highlights","bin4_vs_bin0",41,"Male","United States of America"
"141","examples","labels",7149,"n09246464_44118.JPEG","Bottom","up",7,4,"false_negative","cliff","water snake","bin4_vs_bin0","n01737021_10059.JPEG","n01737021_4842.JPEG","n01737021_13110.JPEG","n01737021_16309.JPEG",63,11,78533,"ov9l17u4","no_highlights","bin4_vs_bin0",41,"Male","United States of America"
"142","examples","labels",6468,"n02966687_13138.JPEG","Top","up",8,4,"true_positive","carpenter's kit","carpenter's kit","bin4_vs_bin0","n02966687_16028.JPEG","n02966687_8155.JPEG","n02966687_11538.JPEG","n02966687_5754.JPEG",45,12,85014,"ov9l17u4","no_highlights","bin4_vs_bin0",41,"Male","United States of America"
"143","examples","labels",6235,"n01698640_1544.JPEG","Bottom","up",9,4,"false_negative","american alligator","cliff","bin4_vs_bin0","n09246464_10281.JPEG","n09246464_85325.JPEG","n09246464_14057.JPEG","n09246464_43233.JPEG",2,13,91264,"ov9l17u4","no_highlights","bin4_vs_bin0",41,"Male","United States of America"
"144","examples","labels",2724,"n02111889_8306.JPEG","Bottom","down",10,4,"false_positive","samoyed","hippopotamus","bin4_vs_bin0","n02398521_12142.JPEG","n02398521_22710.JPEG","n02398521_11047.JPEG","n02398521_28136.JPEG",37,14,93997,"ov9l17u4","no_highlights","bin4_vs_bin0",41,"Male","United States of America"
"145","examples","labels",3419,"n01910747_1373.JPEG","Bottom","up",11,4,"false_negative","jellyfish","syringe","bin4_vs_bin0","n04376876_12448.JPEG","n04376876_14846.JPEG","n04376876_11416.JPEG","n04376876_16406.JPEG",14,15,97423,"ov9l17u4","no_highlights","bin4_vs_bin0",41,"Male","United States of America"
"146","examples","labels",3813,"n02088364_546.JPEG","Top","down",12,4,"false_positive","beagle","rhodesian ridgeback","bin4_vs_bin0","n02087394_1136.JPEG","n02087394_6197.JPEG","n02087394_2747.JPEG","n02087394_9206.JPEG",18,16,101245,"ov9l17u4","no_highlights","bin4_vs_bin0",41,"Male","United States of America"
"147","examples","labels",3427,"n01775062_346.JPEG","Top","up",13,4,"false_positive","wolf spider","tarantula","bin4_vs_bin0","n01774750_5241.JPEG","n01774750_5605.JPEG","n01774750_326.JPEG","n01774750_7085.JPEG",9,17,104679,"ov9l17u4","no_highlights","bin4_vs_bin0",41,"Male","United States of America"
"148","examples","labels",5688,"n11939491_18388.JPEG","Top","up",14,4,"false_positive","daisy","coral fungus","bin4_vs_bin0","n12985857_2067.JPEG","n12985857_3828.JPEG","n12985857_1224.JPEG","n12985857_1568.JPEG",66,18,110376,"ov9l17u4","no_highlights","bin4_vs_bin0",41,"Male","United States of America"
"149","examples","labels",10388,"n02100583_641.JPEG","Top","down",15,4,"true_positive","vizsla","vizsla","bin4_vs_bin0","n02100583_12267.JPEG","n02100583_24836.JPEG","n02100583_18233.JPEG","n02100583_2500.JPEG",28,19,120771,"ov9l17u4","no_highlights","bin4_vs_bin0",41,"Male","United States of America"
"150","examples","labels",4666,"n02100583_16828.JPEG","Top","down",16,4,"false_negative","vizsla","irish terrier","bin4_vs_bin0","n02093991_3322.JPEG","n02093991_7812.JPEG","n02093991_2202.JPEG","n02093991_8208.JPEG",29,20,125446,"ov9l17u4","no_highlights","bin4_vs_bin0",41,"Male","United States of America"
"151","examples","labels",5914,"n02089078_10242.JPEG","Bottom","down",17,4,"false_positive","black-and-tan coonhound","rottweiler","bin4_vs_bin0","n02106550_11490.JPEG","n02106550_7453.JPEG","n02106550_2886.JPEG","n02106550_423.JPEG",30,21,131370,"ov9l17u4","no_highlights","bin4_vs_bin0",41,"Male","United States of America"
"152","examples","labels",3334,"n01728572_3606.JPEG","Bottom","up",18,4,"false_positive","thunder snake","water snake","bin4_vs_bin0","n01737021_14581.JPEG","n01737021_9875.JPEG","n01737021_18157.JPEG","n01737021_7455.JPEG",5,22,134715,"ov9l17u4","no_highlights","bin4_vs_bin0",41,"Male","United States of America"
"153","examples","labels",7537,"n02749479_3938.JPEG","Bottom","down",19,4,"false_negative","assault rifle","syringe","bin4_vs_bin0","n04376876_11958.JPEG","n04376876_7055.JPEG","n04376876_12585.JPEG","n04376876_3322.JPEG",40,23,142269,"ov9l17u4","no_highlights","bin4_vs_bin0",41,"Male","United States of America"
"154","examples","labels",2407,"n02093754_1207.JPEG","Top","up",20,4,"true_positive","border terrier","border terrier","bin4_vs_bin0","n02093754_3009.JPEG","n02093754_4354.JPEG","n02093754_2656.JPEG","n02093754_6122.JPEG",23,24,144686,"ov9l17u4","no_highlights","bin4_vs_bin0",41,"Male","United States of America"
"155","examples","labels",4374,"n03124170_1827.JPEG","Bottom","down",21,4,"true_positive","cowboy hat","cowboy hat","bin4_vs_bin0","n03124170_5589.JPEG","n03124170_747.JPEG","n03124170_18272.JPEG","n03124170_9703.JPEG",47,25,149066,"ov9l17u4","no_highlights","bin4_vs_bin0",41,"Male","United States of America"
"156","examples","labels",3543,"n02123045_10294.JPEG","Top","down",22,4,"false_positive","tabby","lynx","bin4_vs_bin0","n02127052_13004.JPEG","n02127052_5318.JPEG","n02127052_12209.JPEG","n02127052_5365.JPEG",35,26,152614,"ov9l17u4","no_highlights","bin4_vs_bin0",41,"Male","United States of America"
"157","examples","labels",2583,"n01774750_66.JPEG","Top","up",23,4,"true_positive","tarantula","tarantula","bin4_vs_bin0","n01774750_2059.JPEG","n01774750_306.JPEG","n01774750_2247.JPEG","n01774750_537.JPEG",8,27,155210,"ov9l17u4","no_highlights","bin4_vs_bin0",41,"Male","United States of America"
"158","examples","labels",4812,"n07836838_12552.JPEG","Bottom","down",24,4,"false_negative","chocolate sauce","plate","bin4_vs_bin0","n07579787_14908.JPEG","n07579787_9332.JPEG","n07579787_7772.JPEG","n07579787_8617.JPEG",61,28,160034,"ov9l17u4","no_highlights","bin4_vs_bin0",41,"Male","United States of America"
"159","examples","labels",3103,"n02094258_1318.JPEG","Bottom","up",25,4,"false_positive","norwich terrier","australian terrier","bin4_vs_bin0","n02096294_2519.JPEG","n02096294_6003.JPEG","n02096294_1315.JPEG","n02096294_5463.JPEG",27,29,163149,"ov9l17u4","no_highlights","bin4_vs_bin0",41,"Male","United States of America"
"160","examples","labels",3636,"n02087046_5352.JPEG","Bottom","up",26,4,"true_positive","toy terrier","toy terrier","bin4_vs_bin0","n02087046_12885.JPEG","n02087046_6526.JPEG","n02087046_3883.JPEG","n02087046_9010.JPEG",16,30,166802,"ov9l17u4","no_highlights","bin4_vs_bin0",41,"Male","United States of America"
"161","examples","labels",3963,"n01629819_11036.JPEG","Bottom","down",27,4,"true_positive","european fire salamander","european fire salamander","bin4_vs_bin0","n01629819_11847.JPEG","n01629819_15089.JPEG","n01629819_15314.JPEG","n01629819_2223.JPEG",1,31,170776,"ov9l17u4","no_highlights","bin4_vs_bin0",41,"Male","United States of America"
"162","examples","labels",6439,"n02841315_9856.JPEG","Top","up",28,4,"true_positive","binoculars","binoculars","bin4_vs_bin0","n02841315_1166.JPEG","n02841315_6727.JPEG","n02841315_12588.JPEG","n02841315_16773.JPEG",43,32,177224,"ov9l17u4","no_highlights","bin4_vs_bin0",41,"Male","United States of America"
"163","examples","labels",1654,"n01774750_3115.JPEG","Top","up",29,4,"false_positive","tarantula","wolf spider","bin4_vs_bin0","n01775062_3371.JPEG","n01775062_5393.JPEG","n01775062_4308.JPEG","n01775062_8240.JPEG",10,33,178888,"ov9l17u4","no_highlights","bin4_vs_bin0",41,"Male","United States of America"
"164","examples","labels",3525,"n02910353_1177.JPEG","Bottom","up",30,4,"true_positive","buckle","buckle","bin4_vs_bin0","n02910353_27074.JPEG","n02910353_5938.JPEG","n02910353_3569.JPEG","n02910353_7358.JPEG",44,34,182426,"ov9l17u4","no_highlights","bin4_vs_bin0",41,"Male","United States of America"
"165","examples","labels",3025,"n01737021_11237.JPEG","Bottom","down",31,4,"false_positive","water snake","thunder snake","bin4_vs_bin0","n01728572_24347.JPEG","n01728572_6211.JPEG","n01728572_23564.JPEG","n01728572_3226.JPEG",3,35,185480,"ov9l17u4","no_highlights","bin4_vs_bin0",41,"Male","United States of America"
"166","examples","labels",2291,"n02108000_6512.JPEG","Bottom","up",32,4,"false_positive","entlebucher","appenzeller","bin4_vs_bin0","n02107908_11026.JPEG","n02107908_11055.JPEG","n02107908_7691.JPEG","n02107908_8711.JPEG",31,36,187781,"ov9l17u4","no_highlights","bin4_vs_bin0",41,"Male","United States of America"
"167","examples","labels",1698,"n02127052_15937.JPEG","Top","up",33,4,"true_positive","lynx","lynx","bin4_vs_bin0","n02127052_6930.JPEG","n02127052_7837.JPEG","n02127052_12209.JPEG","n02127052_5365.JPEG",34,37,189491,"ov9l17u4","no_highlights","bin4_vs_bin0",41,"Male","United States of America"
"168","examples","labels",2110,"n02094433_9397.JPEG","Bottom","down",34,4,"false_negative","yorkshire terrier","silky terrier","bin4_vs_bin0","n02097658_4517.JPEG","n02097658_947.JPEG","n02097658_1658.JPEG","n02097658_703.JPEG",26,38,191606,"ov9l17u4","no_highlights","bin4_vs_bin0",41,"Male","United States of America"
"169","examples","labels",3125,"n03180011_7471.JPEG","Bottom","down",35,4,"false_negative","desktop computer","restaurant","bin4_vs_bin0","n04081281_24883.JPEG","n04081281_63796.JPEG","n04081281_71573.JPEG","n04081281_73452.JPEG",48,39,194736,"ov9l17u4","no_highlights","bin4_vs_bin0",41,"Male","United States of America"
"170","examples","labels",3611,"n02106550_12409.JPEG","Bottom","down",36,4,"false_positive","rottweiler","black-and-tan coonhound","bin4_vs_bin0","n02089078_11010.JPEG","n02089078_3869.JPEG","n02089078_3134.JPEG","n02089078_9564.JPEG",21,40,198353,"ov9l17u4","no_highlights","bin4_vs_bin0",41,"Male","United States of America"
"171","examples","labels",2481,"n02708093_6723.JPEG","Top","down",37,4,"false_negative","analog clock","wall clock","bin4_vs_bin0","n04548280_5235.JPEG","n04548280_9136.JPEG","n04548280_4285.JPEG","n04548280_954.JPEG",39,41,200842,"ov9l17u4","no_highlights","bin4_vs_bin0",41,"Male","United States of America"
"172","examples","labels",2798,"n03355925_20526.JPEG","Top","down",38,4,"false_negative","flagpole","syringe","bin4_vs_bin0","n04376876_12070.JPEG","n04376876_5039.JPEG","n04376876_10801.JPEG","n04376876_17008.JPEG",51,42,203644,"ov9l17u4","no_highlights","bin4_vs_bin0",41,"Male","United States of America"
"173","examples","labels",5492,"n02111889_8845.JPEG","Top","up",39,4,"false_positive","samoyed","norwich terrier","bin4_vs_bin0","n02094258_1594.JPEG","n02094258_3809.JPEG","n02094258_2513.JPEG","n02094258_778.JPEG",25,43,209145,"ov9l17u4","no_highlights","bin4_vs_bin0",41,"Male","United States of America"
"174","examples","labels",2133,"n02708093_2037.JPEG","Top","up",40,4,"true_positive","analog clock","analog clock","bin4_vs_bin0","n02708093_1727.JPEG","n02708093_7076.JPEG","n02708093_2469.JPEG","n02708093_2499.JPEG",38,44,211291,"ov9l17u4","no_highlights","bin4_vs_bin0",41,"Male","United States of America"
"175","examples","labels",4733,"n01622779_6015.JPEG","Bottom","up",41,4,"false_negative","great grey owl","american alligator","bin4_vs_bin0","n01698640_18055.JPEG","n01698640_23838.JPEG","n01698640_5106.JPEG","n01698640_8125.JPEG",0,45,216040,"ov9l17u4","no_highlights","bin4_vs_bin0",41,"Male","United States of America"
"176","examples","labels",5279,"n02107908_7700.JPEG","Bottom","down",42,4,"false_negative","appenzeller","beagle","bin4_vs_bin0","n02088364_14069.JPEG","n02088364_7913.JPEG","n02088364_13361.JPEG","n02088364_15516.JPEG",32,46,221326,"ov9l17u4","no_highlights","bin4_vs_bin0",41,"Male","United States of America"
"177","examples","labels",2898,"n02089867_1009.JPEG","Bottom","down",43,4,"false_positive","walker hound","beagle","bin4_vs_bin0","n02088364_10216.JPEG","n02088364_9768.JPEG","n02088364_1243.JPEG","n02088364_17243.JPEG",20,47,224233,"ov9l17u4","no_highlights","bin4_vs_bin0",41,"Male","United States of America"
"178","examples","labels",2730,"n12985857_11341.JPEG","Bottom","down",44,4,"true_positive","coral fungus","coral fungus","bin4_vs_bin0","n12985857_4636.JPEG","n12985857_4686.JPEG","n12985857_3606.JPEG","n12985857_4228.JPEG",65,48,226973,"ov9l17u4","no_highlights","bin4_vs_bin0",41,"Male","United States of America"
"179","examples","labels",2653,"n01773549_1009.JPEG","Top","up",45,4,"true_positive","barn spider","barn spider","bin4_vs_bin0","n01773549_5947.JPEG","n01773549_7902.JPEG","n01773549_607.JPEG","n01773549_7321.JPEG",6,49,229642,"ov9l17u4","no_highlights","bin4_vs_bin0",41,"Male","United States of America"
"180","examples","labels",5044,"n03775546_4552.JPEG","Bottom","up",46,4,"false_negative","mixing bowl","chocolate sauce","bin4_vs_bin0","n07836838_25811.JPEG","n07836838_29738.JPEG","n07836838_26303.JPEG","n07836838_3810.JPEG",55,50,234690,"ov9l17u4","no_highlights","bin4_vs_bin0",41,"Male","United States of America"
"181","examples","labels",2239,"n03888257_10645.JPEG","Top","down",47,4,"false_positive","parachute","barn spider","bin4_vs_bin0","n01773549_1101.JPEG","n01773549_1230.JPEG","n01773549_3090.JPEG","n01773549_9412.JPEG",7,51,236938,"ov9l17u4","no_highlights","bin4_vs_bin0",41,"Male","United States of America"
"182","examples","labels",3352,"n09246464_20477.JPEG","Top","down",48,4,"true_positive","cliff","cliff","bin4_vs_bin0","n09246464_42064.JPEG","n09246464_48782.JPEG","n09246464_16558.JPEG","n09246464_20389.JPEG",62,52,240308,"ov9l17u4","no_highlights","bin4_vs_bin0",41,"Male","United States of America"
"183","examples","labels",12614,"n04081281_63657.JPEG","Bottom","down",49,4,"false_negative","restaurant","vizsla","bin4_vs_bin0","n02100583_1215.JPEG","n02100583_5039.JPEG","n02100583_21102.JPEG","n02100583_27099.JPEG",56,53,252936,"ov9l17u4","no_highlights","bin4_vs_bin0",41,"Male","United States of America"
"184","examples","labels",2092,"n11939491_55307.JPEG","Top","down",50,4,"true_positive","daisy","daisy","bin4_vs_bin0","n11939491_52970.JPEG","n11939491_6133.JPEG","n11939491_25081.JPEG","n11939491_47993.JPEG",64,54,255044,"ov9l17u4","no_highlights","bin4_vs_bin0",41,"Male","United States of America"
"185","examples","labels",3175,"n01737021_5123.JPEG","Top","down",51,4,"false_positive","water snake","jellyfish","bin4_vs_bin0","n01910747_389.JPEG","n01910747_80.JPEG","n01910747_17115.JPEG","n01910747_2059.JPEG",13,55,258232,"ov9l17u4","no_highlights","bin4_vs_bin0",41,"Male","United States of America"
"186","examples","labels",7143,"n01798484_3991.JPEG","Bottom","down",52,4,"true_positive","prairie chicken","prairie chicken","bin4_vs_bin0","n01798484_11834.JPEG","n01798484_12617.JPEG","n01798484_14019.JPEG","n01798484_864.JPEG",11,56,265382,"ov9l17u4","no_highlights","bin4_vs_bin0",41,"Male","United States of America"
"187","examples","labels",6267,"n02841315_22883.JPEG","Bottom","down",53,4,"false_positive","binoculars","sunscreen","bin4_vs_bin0","n04357314_11238.JPEG","n04357314_15646.JPEG","n04357314_15268.JPEG","n04357314_3673.JPEG",58,57,271656,"ov9l17u4","no_highlights","bin4_vs_bin0",41,"Male","United States of America"
"188","examples","labels",3081,"n02088364_3191.JPEG","Top","up",54,4,"true_positive","beagle","beagle","bin4_vs_bin0","n02088364_6.JPEG","n02088364_7340.JPEG","n02088364_14051.JPEG","n02088364_14094.JPEG",19,58,274745,"ov9l17u4","no_highlights","bin4_vs_bin0",41,"Male","United States of America"
"189","examples","labels",3044,"n02085620_5927.JPEG","Top","up",55,4,"true_positive","chihuahua","chihuahua","bin4_vs_bin0","n02085620_3550.JPEG","n02085620_3843.JPEG","n02085620_2766.JPEG","n02085620_7315.JPEG",15,59,277802,"ov9l17u4","no_highlights","bin4_vs_bin0",41,"Male","United States of America"
"190","examples","labels",3192,"n02089867_1292.JPEG","Bottom","up",56,4,"false_negative","walker hound","beagle","bin4_vs_bin0","n02088364_15436.JPEG","n02088364_4874.JPEG","n02088364_12440.JPEG","n02088364_3466.JPEG",22,60,281008,"ov9l17u4","no_highlights","bin4_vs_bin0",41,"Male","United States of America"
"191","examples","labels",2522,"n02087046_6729.JPEG","Top","up",57,4,"false_negative","toy terrier","chihuahua","bin4_vs_bin0","n02085620_15502.JPEG","n02085620_9971.JPEG","n02085620_10498.JPEG","n02085620_1458.JPEG",17,61,283541,"ov9l17u4","no_highlights","bin4_vs_bin0",41,"Male","United States of America"
"192","examples","labels",3580,"n03690938_1590.JPEG","Top","down",58,4,"true_positive","lotion","lotion","bin4_vs_bin0","n03690938_308.JPEG","n03690938_5613.JPEG","n03690938_11023.JPEG","n03690938_6442.JPEG",54,62,287135,"ov9l17u4","no_highlights","bin4_vs_bin0",41,"Male","United States of America"
"193","examples","labels",1970,"n02127052_4830.JPEG","Top","up",59,4,"false_positive","lynx","tiger","bin4_vs_bin0","n02129604_2760.JPEG","n02129604_37.JPEG","n02129604_23238.JPEG","n02129604_8342.JPEG",36,63,289119,"ov9l17u4","no_highlights","bin4_vs_bin0",41,"Male","United States of America"
"194","examples","labels",2999,"n01737021_5934.JPEG","Top","up",60,4,"true_positive","water snake","water snake","bin4_vs_bin0","n01737021_13330.JPEG","n01737021_17321.JPEG","n01737021_10963.JPEG","n01737021_13356.JPEG",4,64,292131,"ov9l17u4","no_highlights","bin4_vs_bin0",41,"Male","United States of America"
"195","examples","labels",3689,"n02093754_2510.JPEG","Top","up",61,4,"false_negative","border terrier","irish terrier","bin4_vs_bin0","n02093991_1026.JPEG","n02093991_233.JPEG","n02093991_1193.JPEG","n02093991_8867.JPEG",24,65,295830,"ov9l17u4","no_highlights","bin4_vs_bin0",41,"Male","United States of America"
"196","examples","labels",4741,"n03630383_9556.JPEG","Bottom","down",62,4,"false_negative","lab coat","crash helmet","bin4_vs_bin0","n03127747_1618.JPEG","n03127747_19969.JPEG","n03127747_10078.JPEG","n03127747_14164.JPEG",52,66,300582,"ov9l17u4","no_highlights","bin4_vs_bin0",41,"Male","United States of America"
"197","examples","labels",1846,"n07836838_3015.JPEG","Top","up",63,4,"true_positive","chocolate sauce","chocolate sauce","bin4_vs_bin0","n07836838_4747.JPEG","n07836838_689.JPEG","n07836838_3759.JPEG","n07836838_8703.JPEG",60,67,302433,"ov9l17u4","no_highlights","bin4_vs_bin0",41,"Male","United States of America"
"198","examples","labels",2665,"n02966687_11538.JPEG","Top","up",64,4,"false_negative","carpenter's kit","buckle","bin4_vs_bin0","n02910353_10560.JPEG","n02910353_20510.JPEG","n02910353_12765.JPEG","n02910353_12909.JPEG",46,68,305104,"ov9l17u4","no_highlights","bin4_vs_bin0",41,"Male","United States of America"
"199","examples","labels",3625,"n02793495_2259.JPEG","Bottom","up",65,4,"false_positive","barn","flagpole","bin4_vs_bin0","n03355925_13846.JPEG","n03355925_2062.JPEG","n03355925_16418.JPEG","n03355925_33214.JPEG",50,69,308759,"ov9l17u4","no_highlights","bin4_vs_bin0",41,"Male","United States of America"
"200","examples","labels",4517,"n02776631_24332.JPEG","Bottom","up",66,4,"true_positive","bakery","bakery","bin4_vs_bin0","n02776631_29494.JPEG","n02776631_78112.JPEG","n02776631_13841.JPEG","n02776631_34755.JPEG",41,70,313289,"ov9l17u4","no_highlights","bin4_vs_bin0",41,"Male","United States of America"
"201","examples","labels",7242,"n01843065_1594.JPEG","Bottom","down",67,4,"false_negative","jacamar","bee eater","bin4_vs_bin0","n01828970_29781.JPEG","n01828970_5523.JPEG","n01828970_2859.JPEG","n01828970_480.JPEG",12,71,320539,"ov9l17u4","no_highlights","bin4_vs_bin0",41,"Male","United States of America"
"202","examples","labels",6098,"n02088364_3191.JPEG","Top","up",1,4,"true_positive","beagle","beagle","bin4_vs_bin0","n02088364_6.JPEG","n02088364_7340.JPEG","n02088364_14051.JPEG","n02088364_14094.JPEG",19,5,41028,"ufkc7gze","no_highlights","bin4_vs_bin0",47,"Female","United States of America"
"203","examples","labels",2155,"n02085620_5927.JPEG","Top","up",2,4,"true_positive","chihuahua","chihuahua","bin4_vs_bin0","n02085620_3550.JPEG","n02085620_3843.JPEG","n02085620_2766.JPEG","n02085620_7315.JPEG",15,6,43185,"ufkc7gze","no_highlights","bin4_vs_bin0",47,"Female","United States of America"
"204","examples","labels",4286,"n02793495_2259.JPEG","Bottom","up",3,4,"false_positive","barn","flagpole","bin4_vs_bin0","n03355925_13846.JPEG","n03355925_2062.JPEG","n03355925_16418.JPEG","n03355925_33214.JPEG",50,7,47473,"ufkc7gze","no_highlights","bin4_vs_bin0",47,"Female","United States of America"
"205","examples","labels",2316,"n01737021_5934.JPEG","Bottom","up",4,4,"true_positive","water snake","water snake","bin4_vs_bin0","n01737021_13330.JPEG","n01737021_17321.JPEG","n01737021_10963.JPEG","n01737021_13356.JPEG",4,8,49791,"ufkc7gze","no_highlights","bin4_vs_bin0",47,"Female","United States of America"
"206","examples","labels",2586,"n04081281_63657.JPEG","Top","down",5,4,"false_negative","restaurant","vizsla","bin4_vs_bin0","n02100583_1215.JPEG","n02100583_5039.JPEG","n02100583_21102.JPEG","n02100583_27099.JPEG",56,9,52380,"ufkc7gze","no_highlights","bin4_vs_bin0",47,"Female","United States of America"
"207","examples","labels",3227,"n02087046_6729.JPEG","Bottom","up",6,4,"false_negative","toy terrier","chihuahua","bin4_vs_bin0","n02085620_15502.JPEG","n02085620_9971.JPEG","n02085620_10498.JPEG","n02085620_1458.JPEG",17,10,55607,"ufkc7gze","no_highlights","bin4_vs_bin0",47,"Female","United States of America"
"208","examples","labels",1818,"n01798484_3991.JPEG","Bottom","down",7,4,"true_positive","prairie chicken","prairie chicken","bin4_vs_bin0","n01798484_11834.JPEG","n01798484_12617.JPEG","n01798484_14019.JPEG","n01798484_864.JPEG",11,11,57428,"ufkc7gze","no_highlights","bin4_vs_bin0",47,"Female","United States of America"
"209","examples","labels",1788,"n02094258_1318.JPEG","Top","up",8,4,"false_positive","norwich terrier","australian terrier","bin4_vs_bin0","n02096294_2519.JPEG","n02096294_6003.JPEG","n02096294_1315.JPEG","n02096294_5463.JPEG",27,12,59218,"ufkc7gze","no_highlights","bin4_vs_bin0",47,"Female","United States of America"
"210","examples","labels",8046,"n09246464_44118.JPEG","Top","up",9,4,"false_negative","cliff","water snake","bin4_vs_bin0","n01737021_10059.JPEG","n01737021_4842.JPEG","n01737021_13110.JPEG","n01737021_16309.JPEG",63,13,67265,"ufkc7gze","no_highlights","bin4_vs_bin0",47,"Female","United States of America"
"211","examples","labels",5614,"n02776631_24332.JPEG","Top","up",10,4,"true_positive","bakery","bakery","bin4_vs_bin0","n02776631_29494.JPEG","n02776631_78112.JPEG","n02776631_13841.JPEG","n02776631_34755.JPEG",41,14,72884,"ufkc7gze","no_highlights","bin4_vs_bin0",47,"Female","United States of America"
"212","examples","labels",2388,"n03355925_20526.JPEG","Bottom","down",11,4,"false_negative","flagpole","syringe","bin4_vs_bin0","n04376876_12070.JPEG","n04376876_5039.JPEG","n04376876_10801.JPEG","n04376876_17008.JPEG",51,15,75273,"ufkc7gze","no_highlights","bin4_vs_bin0",47,"Female","United States of America"
"213","examples","labels",4351,"n02108000_6512.JPEG","Bottom","up",12,4,"false_positive","entlebucher","appenzeller","bin4_vs_bin0","n02107908_11026.JPEG","n02107908_11055.JPEG","n02107908_7691.JPEG","n02107908_8711.JPEG",31,16,79626,"ufkc7gze","no_highlights","bin4_vs_bin0",47,"Female","United States of America"
"214","examples","labels",2302,"n02708093_2037.JPEG","Top","up",13,4,"true_positive","analog clock","analog clock","bin4_vs_bin0","n02708093_1727.JPEG","n02708093_7076.JPEG","n02708093_2469.JPEG","n02708093_2499.JPEG",38,17,81929,"ufkc7gze","no_highlights","bin4_vs_bin0",47,"Female","United States of America"
"215","examples","labels",2748,"n12985857_11341.JPEG","Bottom","down",14,4,"true_positive","coral fungus","coral fungus","bin4_vs_bin0","n12985857_4636.JPEG","n12985857_4686.JPEG","n12985857_3606.JPEG","n12985857_4228.JPEG",65,18,84678,"ufkc7gze","no_highlights","bin4_vs_bin0",47,"Female","United States of America"
"216","examples","labels",5204,"n02966687_11538.JPEG","Bottom","up",15,4,"false_negative","carpenter's kit","buckle","bin4_vs_bin0","n02910353_10560.JPEG","n02910353_20510.JPEG","n02910353_12765.JPEG","n02910353_12909.JPEG",46,19,89884,"ufkc7gze","no_highlights","bin4_vs_bin0",47,"Female","United States of America"
"217","examples","labels",1638,"n01737021_11237.JPEG","Top","down",16,4,"false_positive","water snake","thunder snake","bin4_vs_bin0","n01728572_24347.JPEG","n01728572_6211.JPEG","n01728572_23564.JPEG","n01728572_3226.JPEG",3,20,91524,"ufkc7gze","no_highlights","bin4_vs_bin0",47,"Female","United States of America"
"218","examples","labels",4656,"n03888257_10645.JPEG","Bottom","down",17,4,"false_positive","parachute","barn spider","bin4_vs_bin0","n01773549_1101.JPEG","n01773549_1230.JPEG","n01773549_3090.JPEG","n01773549_9412.JPEG",7,21,96183,"ufkc7gze","no_highlights","bin4_vs_bin0",47,"Female","United States of America"
"219","examples","labels",2079,"n07836838_3015.JPEG","Top","up",18,4,"true_positive","chocolate sauce","chocolate sauce","bin4_vs_bin0","n07836838_4747.JPEG","n07836838_689.JPEG","n07836838_3759.JPEG","n07836838_8703.JPEG",60,22,98263,"ufkc7gze","no_highlights","bin4_vs_bin0",47,"Female","United States of America"
"220","examples","labels",4599,"n02910353_1177.JPEG","Bottom","up",19,4,"true_positive","buckle","buckle","bin4_vs_bin0","n02910353_27074.JPEG","n02910353_5938.JPEG","n02910353_3569.JPEG","n02910353_7358.JPEG",44,23,102865,"ufkc7gze","no_highlights","bin4_vs_bin0",47,"Female","United States of America"
"221","examples","labels",3334,"n07836838_12552.JPEG","Top","down",20,4,"false_negative","chocolate sauce","plate","bin4_vs_bin0","n07579787_14908.JPEG","n07579787_9332.JPEG","n07579787_7772.JPEG","n07579787_8617.JPEG",61,24,106200,"ufkc7gze","no_highlights","bin4_vs_bin0",47,"Female","United States of America"
"222","examples","labels",2667,"n03630383_9556.JPEG","Bottom","down",21,4,"false_negative","lab coat","crash helmet","bin4_vs_bin0","n03127747_1618.JPEG","n03127747_19969.JPEG","n03127747_10078.JPEG","n03127747_14164.JPEG",52,25,108869,"ufkc7gze","no_highlights","bin4_vs_bin0",47,"Female","United States of America"
"223","examples","labels",2169,"n09246464_20477.JPEG","Top","down",22,4,"true_positive","cliff","cliff","bin4_vs_bin0","n09246464_42064.JPEG","n09246464_48782.JPEG","n09246464_16558.JPEG","n09246464_20389.JPEG",62,26,111040,"ufkc7gze","no_highlights","bin4_vs_bin0",47,"Female","United States of America"
"224","examples","labels",2151,"n03775546_4552.JPEG","Bottom","up",23,4,"false_negative","mixing bowl","chocolate sauce","bin4_vs_bin0","n07836838_25811.JPEG","n07836838_29738.JPEG","n07836838_26303.JPEG","n07836838_3810.JPEG",55,27,113192,"ufkc7gze","no_highlights","bin4_vs_bin0",47,"Female","United States of America"
"225","examples","labels",6255,"n02841315_22883.JPEG","Bottom","down",24,4,"false_positive","binoculars","sunscreen","bin4_vs_bin0","n04357314_11238.JPEG","n04357314_15646.JPEG","n04357314_15268.JPEG","n04357314_3673.JPEG",58,28,119448,"ufkc7gze","no_highlights","bin4_vs_bin0",47,"Female","United States of America"
"226","examples","labels",5256,"n02094258_5011.JPEG","Bottom","up",25,4,"false_positive","norwich terrier","samoyed","bin4_vs_bin0","n02111889_11040.JPEG","n02111889_17140.JPEG","n02111889_2732.JPEG","n02111889_3809.JPEG",33,29,124706,"ufkc7gze","no_highlights","bin4_vs_bin0",47,"Female","United States of America"
"227","examples","labels",2198,"n02088364_546.JPEG","Top","down",26,4,"false_positive","beagle","rhodesian ridgeback","bin4_vs_bin0","n02087394_1136.JPEG","n02087394_6197.JPEG","n02087394_2747.JPEG","n02087394_9206.JPEG",18,30,126906,"ufkc7gze","no_highlights","bin4_vs_bin0",47,"Female","United States of America"
"228","examples","labels",1809,"n07613480_20992.JPEG","Top","down",27,4,"true_positive","trifle","trifle","bin4_vs_bin0","n07613480_1476.JPEG","n07613480_16696.JPEG","n07613480_24663.JPEG","n07613480_44499.JPEG",59,31,128718,"ufkc7gze","no_highlights","bin4_vs_bin0",47,"Female","United States of America"
"229","examples","labels",4419,"n02127052_15937.JPEG","Top","up",28,4,"true_positive","lynx","lynx","bin4_vs_bin0","n02127052_6930.JPEG","n02127052_7837.JPEG","n02127052_12209.JPEG","n02127052_5365.JPEG",34,32,133141,"ufkc7gze","no_highlights","bin4_vs_bin0",47,"Female","United States of America"
"230","examples","labels",3130,"n01773549_1009.JPEG","Top","up",29,4,"true_positive","barn spider","barn spider","bin4_vs_bin0","n01773549_5947.JPEG","n01773549_7902.JPEG","n01773549_607.JPEG","n01773549_7321.JPEG",6,33,136272,"ufkc7gze","no_highlights","bin4_vs_bin0",47,"Female","United States of America"
"231","examples","labels",4740,"n02100583_641.JPEG","Bottom","down",30,4,"true_positive","vizsla","vizsla","bin4_vs_bin0","n02100583_12267.JPEG","n02100583_24836.JPEG","n02100583_18233.JPEG","n02100583_2500.JPEG",28,34,141014,"ufkc7gze","no_highlights","bin4_vs_bin0",47,"Female","United States of America"
"232","examples","labels",4461,"n02123045_10294.JPEG","Bottom","down",31,4,"false_positive","tabby","lynx","bin4_vs_bin0","n02127052_13004.JPEG","n02127052_5318.JPEG","n02127052_12209.JPEG","n02127052_5365.JPEG",35,35,145477,"ufkc7gze","no_highlights","bin4_vs_bin0",47,"Female","United States of America"
"233","examples","labels",1701,"n01629819_11036.JPEG","Bottom","down",32,4,"true_positive","european fire salamander","european fire salamander","bin4_vs_bin0","n01629819_11847.JPEG","n01629819_15089.JPEG","n01629819_15314.JPEG","n01629819_2223.JPEG",1,36,147180,"ufkc7gze","no_highlights","bin4_vs_bin0",47,"Female","United States of America"
"234","examples","labels",1787,"n03355925_11703.JPEG","Top","up",33,4,"true_positive","flagpole","flagpole","bin4_vs_bin0","n03355925_25129.JPEG","n03355925_4301.JPEG","n03355925_21290.JPEG","n03355925_26775.JPEG",49,37,148969,"ufkc7gze","no_highlights","bin4_vs_bin0",47,"Female","United States of America"
"235","examples","labels",1715,"n01728572_3606.JPEG","Top","up",34,4,"false_positive","thunder snake","water snake","bin4_vs_bin0","n01737021_14581.JPEG","n01737021_9875.JPEG","n01737021_18157.JPEG","n01737021_7455.JPEG",5,38,150684,"ufkc7gze","no_highlights","bin4_vs_bin0",47,"Female","United States of America"
"236","examples","labels",3759,"n02910353_14448.JPEG","Bottom","up",35,4,"false_positive","buckle","lens cap","bin4_vs_bin0","n03657121_24981.JPEG","n03657121_5931.JPEG","n03657121_12512.JPEG","n03657121_7761.JPEG",53,39,154444,"ufkc7gze","no_highlights","bin4_vs_bin0",47,"Female","United States of America"
"237","examples","labels",3123,"n02111889_8845.JPEG","Top","up",36,4,"false_positive","samoyed","norwich terrier","bin4_vs_bin0","n02094258_1594.JPEG","n02094258_3809.JPEG","n02094258_2513.JPEG","n02094258_778.JPEG",25,40,157569,"ufkc7gze","no_highlights","bin4_vs_bin0",47,"Female","United States of America"
"238","examples","labels",4477,"n02111889_8306.JPEG","Bottom","down",37,4,"false_positive","samoyed","hippopotamus","bin4_vs_bin0","n02398521_12142.JPEG","n02398521_22710.JPEG","n02398521_11047.JPEG","n02398521_28136.JPEG",37,41,162049,"ufkc7gze","no_highlights","bin4_vs_bin0",47,"Female","United States of America"
"239","examples","labels",2294,"n02106550_12409.JPEG","Bottom","down",38,4,"false_positive","rottweiler","black-and-tan coonhound","bin4_vs_bin0","n02089078_11010.JPEG","n02089078_3869.JPEG","n02089078_3134.JPEG","n02089078_9564.JPEG",21,42,164345,"ufkc7gze","no_highlights","bin4_vs_bin0",47,"Female","United States of America"
"240","examples","labels",6206,"n02089867_1009.JPEG","Top","down",39,4,"false_positive","walker hound","beagle","bin4_vs_bin0","n02088364_10216.JPEG","n02088364_9768.JPEG","n02088364_1243.JPEG","n02088364_17243.JPEG",20,43,170553,"ufkc7gze","no_highlights","bin4_vs_bin0",47,"Female","United States of America"
"241","examples","labels",3214,"n01843065_1594.JPEG","Bottom","down",40,4,"false_negative","jacamar","bee eater","bin4_vs_bin0","n01828970_29781.JPEG","n01828970_5523.JPEG","n01828970_2859.JPEG","n01828970_480.JPEG",12,44,173770,"ufkc7gze","no_highlights","bin4_vs_bin0",47,"Female","United States of America"
"242","examples","labels",3743,"n01774750_66.JPEG","Top","up",41,4,"true_positive","tarantula","tarantula","bin4_vs_bin0","n01774750_2059.JPEG","n01774750_306.JPEG","n01774750_2247.JPEG","n01774750_537.JPEG",8,45,177516,"ufkc7gze","no_highlights","bin4_vs_bin0",47,"Female","United States of America"
"243","examples","labels",2658,"n02094433_9397.JPEG","Bottom","down",42,4,"false_negative","yorkshire terrier","silky terrier","bin4_vs_bin0","n02097658_4517.JPEG","n02097658_947.JPEG","n02097658_1658.JPEG","n02097658_703.JPEG",26,46,180176,"ufkc7gze","no_highlights","bin4_vs_bin0",47,"Female","United States of America"
"244","examples","labels",1947,"n02100583_16828.JPEG","Bottom","down",43,4,"false_negative","vizsla","irish terrier","bin4_vs_bin0","n02093991_3322.JPEG","n02093991_7812.JPEG","n02093991_2202.JPEG","n02093991_8208.JPEG",29,47,182125,"ufkc7gze","no_highlights","bin4_vs_bin0",47,"Female","United States of America"
"245","examples","labels",4008,"n02841315_9856.JPEG","Top","up",44,4,"true_positive","binoculars","binoculars","bin4_vs_bin0","n02841315_1166.JPEG","n02841315_6727.JPEG","n02841315_12588.JPEG","n02841315_16773.JPEG",43,48,186135,"ufkc7gze","no_highlights","bin4_vs_bin0",47,"Female","United States of America"
"246","examples","labels",1723,"n11939491_18388.JPEG","Bottom","up",45,4,"false_positive","daisy","coral fungus","bin4_vs_bin0","n12985857_2067.JPEG","n12985857_3828.JPEG","n12985857_1224.JPEG","n12985857_1568.JPEG",66,49,187860,"ufkc7gze","no_highlights","bin4_vs_bin0",47,"Female","United States of America"
"247","examples","labels",4042,"n02093754_2510.JPEG","Top","up",46,4,"false_negative","border terrier","irish terrier","bin4_vs_bin0","n02093991_1026.JPEG","n02093991_233.JPEG","n02093991_1193.JPEG","n02093991_8867.JPEG",24,50,191906,"ufkc7gze","no_highlights","bin4_vs_bin0",47,"Female","United States of America"
"248","examples","labels",1559,"n11939491_55307.JPEG","Top","down",47,4,"true_positive","daisy","daisy","bin4_vs_bin0","n11939491_52970.JPEG","n11939491_6133.JPEG","n11939491_25081.JPEG","n11939491_47993.JPEG",64,51,193468,"ufkc7gze","no_highlights","bin4_vs_bin0",47,"Female","United States of America"
"249","examples","labels",2317,"n03180011_7471.JPEG","Bottom","down",48,4,"false_negative","desktop computer","restaurant","bin4_vs_bin0","n04081281_24883.JPEG","n04081281_63796.JPEG","n04081281_71573.JPEG","n04081281_73452.JPEG",48,52,195787,"ufkc7gze","no_highlights","bin4_vs_bin0",47,"Female","United States of America"
"250","examples","labels",2112,"n01775062_346.JPEG","Top","up",49,4,"false_positive","wolf spider","tarantula","bin4_vs_bin0","n01774750_5241.JPEG","n01774750_5605.JPEG","n01774750_326.JPEG","n01774750_7085.JPEG",9,53,197901,"ufkc7gze","no_highlights","bin4_vs_bin0",47,"Female","United States of America"
"251","examples","labels",1912,"n02089078_10242.JPEG","Top","down",50,4,"false_positive","black-and-tan coonhound","rottweiler","bin4_vs_bin0","n02106550_11490.JPEG","n02106550_7453.JPEG","n02106550_2886.JPEG","n02106550_423.JPEG",30,54,199815,"ufkc7gze","no_highlights","bin4_vs_bin0",47,"Female","United States of America"
"252","examples","labels",2599,"n02093754_1207.JPEG","Top","up",51,4,"true_positive","border terrier","border terrier","bin4_vs_bin0","n02093754_3009.JPEG","n02093754_4354.JPEG","n02093754_2656.JPEG","n02093754_6122.JPEG",23,55,202415,"ufkc7gze","no_highlights","bin4_vs_bin0",47,"Female","United States of America"
"253","examples","labels",2102,"n02087046_5352.JPEG","Top","up",52,4,"true_positive","toy terrier","toy terrier","bin4_vs_bin0","n02087046_12885.JPEG","n02087046_6526.JPEG","n02087046_3883.JPEG","n02087046_9010.JPEG",16,56,204518,"ufkc7gze","no_highlights","bin4_vs_bin0",47,"Female","United States of America"
"254","examples","labels",2731,"n02708093_6723.JPEG","Bottom","down",53,4,"false_negative","analog clock","wall clock","bin4_vs_bin0","n04548280_5235.JPEG","n04548280_9136.JPEG","n04548280_4285.JPEG","n04548280_954.JPEG",39,57,207252,"ufkc7gze","no_highlights","bin4_vs_bin0",47,"Female","United States of America"
"255","examples","labels",1920,"n02107908_7700.JPEG","Bottom","down",54,4,"false_negative","appenzeller","beagle","bin4_vs_bin0","n02088364_14069.JPEG","n02088364_7913.JPEG","n02088364_13361.JPEG","n02088364_15516.JPEG",32,58,209174,"ufkc7gze","no_highlights","bin4_vs_bin0",47,"Female","United States of America"
"256","examples","labels",7358,"n01622779_6015.JPEG","Bottom","up",55,4,"false_negative","great grey owl","american alligator","bin4_vs_bin0","n01698640_18055.JPEG","n01698640_23838.JPEG","n01698640_5106.JPEG","n01698640_8125.JPEG",0,59,216535,"ufkc7gze","no_highlights","bin4_vs_bin0",47,"Female","United States of America"
"257","examples","labels",4015,"n02776631_91680.JPEG","Bottom","up",56,4,"false_negative","bakery","rifle","bin4_vs_bin0","n04090263_30265.JPEG","n04090263_4829.JPEG","n04090263_167.JPEG","n04090263_26873.JPEG",42,60,220552,"ufkc7gze","no_highlights","bin4_vs_bin0",47,"Female","United States of America"
"258","examples","labels",1798,"n02966687_13138.JPEG","Top","up",57,4,"true_positive","carpenter's kit","carpenter's kit","bin4_vs_bin0","n02966687_16028.JPEG","n02966687_8155.JPEG","n02966687_11538.JPEG","n02966687_5754.JPEG",45,61,222353,"ufkc7gze","no_highlights","bin4_vs_bin0",47,"Female","United States of America"
"259","examples","labels",2832,"n03690938_1590.JPEG","Top","down",58,4,"true_positive","lotion","lotion","bin4_vs_bin0","n03690938_308.JPEG","n03690938_5613.JPEG","n03690938_11023.JPEG","n03690938_6442.JPEG",54,62,225186,"ufkc7gze","no_highlights","bin4_vs_bin0",47,"Female","United States of America"
"260","examples","labels",2901,"n01774750_3115.JPEG","Top","up",59,4,"false_positive","tarantula","wolf spider","bin4_vs_bin0","n01775062_3371.JPEG","n01775062_5393.JPEG","n01775062_4308.JPEG","n01775062_8240.JPEG",10,63,228090,"ufkc7gze","no_highlights","bin4_vs_bin0",47,"Female","United States of America"
"261","examples","labels",2974,"n02127052_4830.JPEG","Top","up",60,4,"false_positive","lynx","tiger","bin4_vs_bin0","n02129604_2760.JPEG","n02129604_37.JPEG","n02129604_23238.JPEG","n02129604_8342.JPEG",36,64,231066,"ufkc7gze","no_highlights","bin4_vs_bin0",47,"Female","United States of America"
"262","examples","labels",2250,"n01698640_1544.JPEG","Bottom","up",61,4,"false_negative","american alligator","cliff","bin4_vs_bin0","n09246464_10281.JPEG","n09246464_85325.JPEG","n09246464_14057.JPEG","n09246464_43233.JPEG",2,65,233318,"ufkc7gze","no_highlights","bin4_vs_bin0",47,"Female","United States of America"
"263","examples","labels",2673,"n01910747_1373.JPEG","Bottom","up",62,4,"false_negative","jellyfish","syringe","bin4_vs_bin0","n04376876_12448.JPEG","n04376876_14846.JPEG","n04376876_11416.JPEG","n04376876_16406.JPEG",14,66,235992,"ufkc7gze","no_highlights","bin4_vs_bin0",47,"Female","United States of America"
"264","examples","labels",1954,"n01737021_5123.JPEG","Bottom","down",63,4,"false_positive","water snake","jellyfish","bin4_vs_bin0","n01910747_389.JPEG","n01910747_80.JPEG","n01910747_17115.JPEG","n01910747_2059.JPEG",13,67,237948,"ufkc7gze","no_highlights","bin4_vs_bin0",47,"Female","United States of America"
"265","examples","labels",1856,"n02749479_4947.JPEG","Top","down",64,4,"false_positive","assault rifle","rifle","bin4_vs_bin0","n04090263_6522.JPEG","n04090263_8691.JPEG","n04090263_13032.JPEG","n04090263_829.JPEG",57,68,239806,"ufkc7gze","no_highlights","bin4_vs_bin0",47,"Female","United States of America"
"266","examples","labels",2259,"n03124170_1827.JPEG","Bottom","down",65,4,"true_positive","cowboy hat","cowboy hat","bin4_vs_bin0","n03124170_5589.JPEG","n03124170_747.JPEG","n03124170_18272.JPEG","n03124170_9703.JPEG",47,69,242066,"ufkc7gze","no_highlights","bin4_vs_bin0",47,"Female","United States of America"
"267","examples","labels",4047,"n02749479_3938.JPEG","Bottom","down",66,4,"false_negative","assault rifle","syringe","bin4_vs_bin0","n04376876_11958.JPEG","n04376876_7055.JPEG","n04376876_12585.JPEG","n04376876_3322.JPEG",40,70,246116,"ufkc7gze","no_highlights","bin4_vs_bin0",47,"Female","United States of America"
"268","examples","labels",2075,"n02089867_1292.JPEG","Bottom","up",67,4,"false_negative","walker hound","beagle","bin4_vs_bin0","n02088364_15436.JPEG","n02088364_4874.JPEG","n02088364_12440.JPEG","n02088364_3466.JPEG",22,71,248192,"ufkc7gze","no_highlights","bin4_vs_bin0",47,"Female","United States of America"
"269","examples","labels",27865,"n02841315_9856.JPEG","Top","up",1,4,"true_positive","binoculars","binoculars","bin4_vs_bin0","n02841315_1166.JPEG","n02841315_6727.JPEG","n02841315_12588.JPEG","n02841315_16773.JPEG",43,5,67395,"rj8enc56","no_highlights","bin4_vs_bin0",28,"Female","United States of America"
"270","examples","labels",6477,"n01910747_1373.JPEG","Top","up",2,4,"false_negative","jellyfish","syringe","bin4_vs_bin0","n04376876_12448.JPEG","n04376876_14846.JPEG","n04376876_11416.JPEG","n04376876_16406.JPEG",14,6,73874,"rj8enc56","no_highlights","bin4_vs_bin0",28,"Female","United States of America"
"271","examples","labels",21008,"n03124170_1827.JPEG","Top","down",3,4,"true_positive","cowboy hat","cowboy hat","bin4_vs_bin0","n03124170_5589.JPEG","n03124170_747.JPEG","n03124170_18272.JPEG","n03124170_9703.JPEG",47,7,94884,"rj8enc56","no_highlights","bin4_vs_bin0",28,"Female","United States of America"
"272","examples","labels",3757,"n01774750_66.JPEG","Top","up",4,4,"true_positive","tarantula","tarantula","bin4_vs_bin0","n01774750_2059.JPEG","n01774750_306.JPEG","n01774750_2247.JPEG","n01774750_537.JPEG",8,8,98644,"rj8enc56","no_highlights","bin4_vs_bin0",28,"Female","United States of America"
"273","examples","labels",8788,"n11939491_55307.JPEG","Top","down",5,4,"true_positive","daisy","daisy","bin4_vs_bin0","n11939491_52970.JPEG","n11939491_6133.JPEG","n11939491_25081.JPEG","n11939491_47993.JPEG",64,9,107434,"rj8enc56","no_highlights","bin4_vs_bin0",28,"Female","United States of America"
"274","examples","labels",4290,"n01698640_1544.JPEG","Bottom","up",6,4,"false_negative","american alligator","cliff","bin4_vs_bin0","n09246464_10281.JPEG","n09246464_85325.JPEG","n09246464_14057.JPEG","n09246464_43233.JPEG",2,10,111725,"rj8enc56","no_highlights","bin4_vs_bin0",28,"Female","United States of America"
"275","examples","labels",3359,"n01629819_11036.JPEG","Bottom","down",7,4,"true_positive","european fire salamander","european fire salamander","bin4_vs_bin0","n01629819_11847.JPEG","n01629819_15089.JPEG","n01629819_15314.JPEG","n01629819_2223.JPEG",1,11,115085,"rj8enc56","no_highlights","bin4_vs_bin0",28,"Female","United States of America"
"276","examples","labels",46,"n02127052_4830.JPEG","Bottom","up",8,4,"false_positive","lynx","tiger","bin4_vs_bin0","n02129604_2760.JPEG","n02129604_37.JPEG","n02129604_23238.JPEG","n02129604_8342.JPEG",36,12,115134,"rj8enc56","no_highlights","bin4_vs_bin0",28,"Female","United States of America"
"277","examples","labels",6547,"n02910353_14448.JPEG","Top","up",9,4,"false_positive","buckle","lens cap","bin4_vs_bin0","n03657121_24981.JPEG","n03657121_5931.JPEG","n03657121_12512.JPEG","n03657121_7761.JPEG",53,13,121684,"rj8enc56","no_highlights","bin4_vs_bin0",28,"Female","United States of America"
"278","examples","labels",7,"n03355925_11703.JPEG","Top","up",10,4,"true_positive","flagpole","flagpole","bin4_vs_bin0","n03355925_25129.JPEG","n03355925_4301.JPEG","n03355925_21290.JPEG","n03355925_26775.JPEG",49,14,121693,"rj8enc56","no_highlights","bin4_vs_bin0",28,"Female","United States of America"
"279","examples","labels",3311,"n02089078_10242.JPEG","Top","down",11,4,"false_positive","black-and-tan coonhound","rottweiler","bin4_vs_bin0","n02106550_11490.JPEG","n02106550_7453.JPEG","n02106550_2886.JPEG","n02106550_423.JPEG",30,15,125007,"rj8enc56","no_highlights","bin4_vs_bin0",28,"Female","United States of America"
"280","examples","labels",6705,"n02841315_22883.JPEG","Bottom","down",12,4,"false_positive","binoculars","sunscreen","bin4_vs_bin0","n04357314_11238.JPEG","n04357314_15646.JPEG","n04357314_15268.JPEG","n04357314_3673.JPEG",58,16,131714,"rj8enc56","no_highlights","bin4_vs_bin0",28,"Female","United States of America"
"281","examples","labels",88,"n01773549_1009.JPEG","Bottom","up",13,4,"true_positive","barn spider","barn spider","bin4_vs_bin0","n01773549_5947.JPEG","n01773549_7902.JPEG","n01773549_607.JPEG","n01773549_7321.JPEG",6,17,131805,"rj8enc56","no_highlights","bin4_vs_bin0",28,"Female","United States of America"
"282","examples","labels",4942,"n02108000_6512.JPEG","Bottom","up",14,4,"false_positive","entlebucher","appenzeller","bin4_vs_bin0","n02107908_11026.JPEG","n02107908_11055.JPEG","n02107908_7691.JPEG","n02107908_8711.JPEG",31,18,136749,"rj8enc56","no_highlights","bin4_vs_bin0",28,"Female","United States of America"
"283","examples","labels",123,"n03180011_7471.JPEG","Bottom","down",15,4,"false_negative","desktop computer","restaurant","bin4_vs_bin0","n04081281_24883.JPEG","n04081281_63796.JPEG","n04081281_71573.JPEG","n04081281_73452.JPEG",48,19,136874,"rj8enc56","no_highlights","bin4_vs_bin0",28,"Female","United States of America"
"284","examples","labels",4326,"n02085620_5927.JPEG","Top","up",16,4,"true_positive","chihuahua","chihuahua","bin4_vs_bin0","n02085620_3550.JPEG","n02085620_3843.JPEG","n02085620_2766.JPEG","n02085620_7315.JPEG",15,20,141203,"rj8enc56","no_highlights","bin4_vs_bin0",28,"Female","United States of America"
"285","examples","labels",5978,"n02106550_12409.JPEG","Bottom","down",17,4,"false_positive","rottweiler","black-and-tan coonhound","bin4_vs_bin0","n02089078_11010.JPEG","n02089078_3869.JPEG","n02089078_3134.JPEG","n02089078_9564.JPEG",21,21,147183,"rj8enc56","no_highlights","bin4_vs_bin0",28,"Female","United States of America"
"286","examples","labels",2428,"n01622779_6015.JPEG","Top","up",18,4,"false_negative","great grey owl","american alligator","bin4_vs_bin0","n01698640_18055.JPEG","n01698640_23838.JPEG","n01698640_5106.JPEG","n01698640_8125.JPEG",0,22,149613,"rj8enc56","no_highlights","bin4_vs_bin0",28,"Female","United States of America"
"287","examples","labels",3738,"n02088364_3191.JPEG","Top","up",19,4,"true_positive","beagle","beagle","bin4_vs_bin0","n02088364_6.JPEG","n02088364_7340.JPEG","n02088364_14051.JPEG","n02088364_14094.JPEG",19,23,153353,"rj8enc56","no_highlights","bin4_vs_bin0",28,"Female","United States of America"
"288","examples","labels",2649,"n02107908_7700.JPEG","Bottom","down",20,4,"false_negative","appenzeller","beagle","bin4_vs_bin0","n02088364_14069.JPEG","n02088364_7913.JPEG","n02088364_13361.JPEG","n02088364_15516.JPEG",32,24,156004,"rj8enc56","no_highlights","bin4_vs_bin0",28,"Female","United States of America"
"289","examples","labels",1845,"n02087046_5352.JPEG","Top","up",21,4,"true_positive","toy terrier","toy terrier","bin4_vs_bin0","n02087046_12885.JPEG","n02087046_6526.JPEG","n02087046_3883.JPEG","n02087046_9010.JPEG",16,25,157852,"rj8enc56","no_highlights","bin4_vs_bin0",28,"Female","United States of America"
"290","examples","labels",4739,"n07613480_20992.JPEG","Bottom","down",22,4,"true_positive","trifle","trifle","bin4_vs_bin0","n07613480_1476.JPEG","n07613480_16696.JPEG","n07613480_24663.JPEG","n07613480_44499.JPEG",59,26,162594,"rj8enc56","no_highlights","bin4_vs_bin0",28,"Female","United States of America"
"291","examples","labels",2107,"n03630383_9556.JPEG","Top","down",23,4,"false_negative","lab coat","crash helmet","bin4_vs_bin0","n03127747_1618.JPEG","n03127747_19969.JPEG","n03127747_10078.JPEG","n03127747_14164.JPEG",52,27,164704,"rj8enc56","no_highlights","bin4_vs_bin0",28,"Female","United States of America"
"292","examples","labels",2254,"n02749479_3938.JPEG","Top","down",24,4,"false_negative","assault rifle","syringe","bin4_vs_bin0","n04376876_11958.JPEG","n04376876_7055.JPEG","n04376876_12585.JPEG","n04376876_3322.JPEG",40,28,166960,"rj8enc56","no_highlights","bin4_vs_bin0",28,"Female","United States of America"
"293","examples","labels",1922,"n01737021_5934.JPEG","Top","up",25,4,"true_positive","water snake","water snake","bin4_vs_bin0","n01737021_13330.JPEG","n01737021_17321.JPEG","n01737021_10963.JPEG","n01737021_13356.JPEG",4,29,168884,"rj8enc56","no_highlights","bin4_vs_bin0",28,"Female","United States of America"
"294","examples","labels",1256,"n02966687_13138.JPEG","Bottom","up",26,4,"true_positive","carpenter's kit","carpenter's kit","bin4_vs_bin0","n02966687_16028.JPEG","n02966687_8155.JPEG","n02966687_11538.JPEG","n02966687_5754.JPEG",45,30,170143,"rj8enc56","no_highlights","bin4_vs_bin0",28,"Female","United States of America"
"295","examples","labels",851,"n03690938_1590.JPEG","Top","down",27,4,"true_positive","lotion","lotion","bin4_vs_bin0","n03690938_308.JPEG","n03690938_5613.JPEG","n03690938_11023.JPEG","n03690938_6442.JPEG",54,31,170996,"rj8enc56","no_highlights","bin4_vs_bin0",28,"Female","United States of America"
"296","examples","labels",1065,"n09246464_44118.JPEG","Bottom","up",28,4,"false_negative","cliff","water snake","bin4_vs_bin0","n01737021_10059.JPEG","n01737021_4842.JPEG","n01737021_13110.JPEG","n01737021_16309.JPEG",63,32,172063,"rj8enc56","no_highlights","bin4_vs_bin0",28,"Female","United States of America"
"297","examples","labels",1359,"n01737021_5123.JPEG","Top","down",29,4,"false_positive","water snake","jellyfish","bin4_vs_bin0","n01910747_389.JPEG","n01910747_80.JPEG","n01910747_17115.JPEG","n01910747_2059.JPEG",13,33,173424,"rj8enc56","no_highlights","bin4_vs_bin0",28,"Female","United States of America"
"298","examples","labels",1256,"n02127052_15937.JPEG","Bottom","up",30,4,"true_positive","lynx","lynx","bin4_vs_bin0","n02127052_6930.JPEG","n02127052_7837.JPEG","n02127052_12209.JPEG","n02127052_5365.JPEG",34,34,174683,"rj8enc56","no_highlights","bin4_vs_bin0",28,"Female","United States of America"
"299","examples","labels",1729,"n02793495_2259.JPEG","Top","up",31,4,"false_positive","barn","flagpole","bin4_vs_bin0","n03355925_13846.JPEG","n03355925_2062.JPEG","n03355925_16418.JPEG","n03355925_33214.JPEG",50,35,176415,"rj8enc56","no_highlights","bin4_vs_bin0",28,"Female","United States of America"
"300","examples","labels",1676,"n01728572_3606.JPEG","Top","up",32,4,"false_positive","thunder snake","water snake","bin4_vs_bin0","n01737021_14581.JPEG","n01737021_9875.JPEG","n01737021_18157.JPEG","n01737021_7455.JPEG",5,36,178094,"rj8enc56","no_highlights","bin4_vs_bin0",28,"Female","United States of America"
"301","examples","labels",5961,"n02088364_546.JPEG","Top","down",33,4,"false_positive","beagle","rhodesian ridgeback","bin4_vs_bin0","n02087394_1136.JPEG","n02087394_6197.JPEG","n02087394_2747.JPEG","n02087394_9206.JPEG",18,37,184057,"rj8enc56","no_highlights","bin4_vs_bin0",28,"Female","United States of America"
"302","examples","labels",2375,"n02708093_2037.JPEG","Top","up",34,4,"true_positive","analog clock","analog clock","bin4_vs_bin0","n02708093_1727.JPEG","n02708093_7076.JPEG","n02708093_2469.JPEG","n02708093_2499.JPEG",38,38,186433,"rj8enc56","no_highlights","bin4_vs_bin0",28,"Female","United States of America"
"303","examples","labels",3048,"n01774750_3115.JPEG","Bottom","up",35,4,"false_positive","tarantula","wolf spider","bin4_vs_bin0","n01775062_3371.JPEG","n01775062_5393.JPEG","n01775062_4308.JPEG","n01775062_8240.JPEG",10,39,189483,"rj8enc56","no_highlights","bin4_vs_bin0",28,"Female","United States of America"
"304","examples","labels",2119,"n12985857_11341.JPEG","Top","down",36,4,"true_positive","coral fungus","coral fungus","bin4_vs_bin0","n12985857_4636.JPEG","n12985857_4686.JPEG","n12985857_3606.JPEG","n12985857_4228.JPEG",65,40,191604,"rj8enc56","no_highlights","bin4_vs_bin0",28,"Female","United States of America"
"305","examples","labels",1787,"n02093754_2510.JPEG","Top","up",37,4,"false_negative","border terrier","irish terrier","bin4_vs_bin0","n02093991_1026.JPEG","n02093991_233.JPEG","n02093991_1193.JPEG","n02093991_8867.JPEG",24,41,193393,"rj8enc56","no_highlights","bin4_vs_bin0",28,"Female","United States of America"
"306","examples","labels",1900,"n01737021_11237.JPEG","Top","down",38,4,"false_positive","water snake","thunder snake","bin4_vs_bin0","n01728572_24347.JPEG","n01728572_6211.JPEG","n01728572_23564.JPEG","n01728572_3226.JPEG",3,42,195295,"rj8enc56","no_highlights","bin4_vs_bin0",28,"Female","United States of America"
"307","examples","labels",2996,"n02094258_5011.JPEG","Top","up",39,4,"false_positive","norwich terrier","samoyed","bin4_vs_bin0","n02111889_11040.JPEG","n02111889_17140.JPEG","n02111889_2732.JPEG","n02111889_3809.JPEG",33,43,198295,"rj8enc56","no_highlights","bin4_vs_bin0",28,"Female","United States of America"
"308","examples","labels",3803,"n02093754_1207.JPEG","Top","up",40,4,"true_positive","border terrier","border terrier","bin4_vs_bin0","n02093754_3009.JPEG","n02093754_4354.JPEG","n02093754_2656.JPEG","n02093754_6122.JPEG",23,44,202103,"rj8enc56","no_highlights","bin4_vs_bin0",28,"Female","United States of America"
"309","examples","labels",1247,"n02089867_1292.JPEG","Top","up",41,4,"false_negative","walker hound","beagle","bin4_vs_bin0","n02088364_15436.JPEG","n02088364_4874.JPEG","n02088364_12440.JPEG","n02088364_3466.JPEG",22,45,203352,"rj8enc56","no_highlights","bin4_vs_bin0",28,"Female","United States of America"
"310","examples","labels",1768,"n07836838_12552.JPEG","Top","down",42,4,"false_negative","chocolate sauce","plate","bin4_vs_bin0","n07579787_14908.JPEG","n07579787_9332.JPEG","n07579787_7772.JPEG","n07579787_8617.JPEG",61,46,205123,"rj8enc56","no_highlights","bin4_vs_bin0",28,"Female","United States of America"
"311","examples","labels",730,"n03888257_10645.JPEG","Bottom","down",43,4,"false_positive","parachute","barn spider","bin4_vs_bin0","n01773549_1101.JPEG","n01773549_1230.JPEG","n01773549_3090.JPEG","n01773549_9412.JPEG",7,47,205855,"rj8enc56","no_highlights","bin4_vs_bin0",28,"Female","United States of America"
"312","examples","labels",763,"n02100583_16828.JPEG","Bottom","down",44,4,"false_negative","vizsla","irish terrier","bin4_vs_bin0","n02093991_3322.JPEG","n02093991_7812.JPEG","n02093991_2202.JPEG","n02093991_8208.JPEG",29,48,206622,"rj8enc56","no_highlights","bin4_vs_bin0",28,"Female","United States of America"
"313","examples","labels",943,"n02708093_6723.JPEG","Top","down",45,4,"false_negative","analog clock","wall clock","bin4_vs_bin0","n04548280_5235.JPEG","n04548280_9136.JPEG","n04548280_4285.JPEG","n04548280_954.JPEG",39,49,207567,"rj8enc56","no_highlights","bin4_vs_bin0",28,"Female","United States of America"
"314","examples","labels",1433,"n02100583_641.JPEG","Bottom","down",46,4,"true_positive","vizsla","vizsla","bin4_vs_bin0","n02100583_12267.JPEG","n02100583_24836.JPEG","n02100583_18233.JPEG","n02100583_2500.JPEG",28,50,209003,"rj8enc56","no_highlights","bin4_vs_bin0",28,"Female","United States of America"
"315","examples","labels",3637,"n02910353_1177.JPEG","Bottom","up",47,4,"true_positive","buckle","buckle","bin4_vs_bin0","n02910353_27074.JPEG","n02910353_5938.JPEG","n02910353_3569.JPEG","n02910353_7358.JPEG",44,51,212642,"rj8enc56","no_highlights","bin4_vs_bin0",28,"Female","United States of America"
"316","examples","labels",2958,"n01775062_346.JPEG","Top","up",48,4,"false_positive","wolf spider","tarantula","bin4_vs_bin0","n01774750_5241.JPEG","n01774750_5605.JPEG","n01774750_326.JPEG","n01774750_7085.JPEG",9,52,215604,"rj8enc56","no_highlights","bin4_vs_bin0",28,"Female","United States of America"
"317","examples","labels",1111,"n03355925_20526.JPEG","Bottom","down",49,4,"false_negative","flagpole","syringe","bin4_vs_bin0","n04376876_12070.JPEG","n04376876_5039.JPEG","n04376876_10801.JPEG","n04376876_17008.JPEG",51,53,216717,"rj8enc56","no_highlights","bin4_vs_bin0",28,"Female","United States of America"
"318","examples","labels",1272,"n02111889_8306.JPEG","Top","down",50,4,"false_positive","samoyed","hippopotamus","bin4_vs_bin0","n02398521_12142.JPEG","n02398521_22710.JPEG","n02398521_11047.JPEG","n02398521_28136.JPEG",37,54,217992,"rj8enc56","no_highlights","bin4_vs_bin0",28,"Female","United States of America"
"319","examples","labels",130,"n04081281_63657.JPEG","Top","down",51,4,"false_negative","restaurant","vizsla","bin4_vs_bin0","n02100583_1215.JPEG","n02100583_5039.JPEG","n02100583_21102.JPEG","n02100583_27099.JPEG",56,55,218125,"rj8enc56","no_highlights","bin4_vs_bin0",28,"Female","United States of America"
"320","examples","labels",1408,"n03775546_4552.JPEG","Bottom","up",52,4,"false_negative","mixing bowl","chocolate sauce","bin4_vs_bin0","n07836838_25811.JPEG","n07836838_29738.JPEG","n07836838_26303.JPEG","n07836838_3810.JPEG",55,56,219535,"rj8enc56","no_highlights","bin4_vs_bin0",28,"Female","United States of America"
